accel_x,accel_y,accel_z,gyro_x,gyro_y,gyro_z,speed,accident
0.9934283060224653,-0.2765286023423693,1.295377076201385,1.5230298564080254,-0.23415337472333597,-0.23413695694918055,32.90418060840997,0
3.158425631014783,1.5348694583058176,-0.9389487718699042,0.5425600435859647,-0.46341769281246226,-0.46572975357025687,45.21211214797688,0
-3.4498356650260655,-1.1245750584819454,-2.0256622406688476,0.3142473325952739,-0.9080240755212109,-1.4123037013352915,52.8034992108518,0
0.13505640937584767,-2.8494963724269136,-1.0887654490503653,0.11092258970986608,-1.1509935774223028,0.37569801834567196,33.25257964926398,0
-1.20127737983761,-0.5833874995865536,-1.2034132244587938,1.8522781845089378,-0.013497224737933921,-1.0577109289559004,31.71942605576092,0
1.645089824206378,-2.4416872999420445,0.4177271900095108,-1.9596701238797756,-1.3281860488984305,0.19686123586912352,78.47923138822793,0
1.4769331599908209,0.342736562379941,-0.23129656477648106,-0.3011036955892888,-1.4785219903674274,-0.7198442083947086,71.43687545759647,0
0.6872365791369228,-3.526080310725468,0.64816793878959,-0.38508228041631654,-0.6769220003059587,0.6116762888408679,30.27610585618012,0
12.468325129969859,12.018966879596647,22.062629111970992,15.42496011428329,9.711959513678664,14.014131591568097,1.195942459383017,1
10.906247707042986,23.212458086697104,22.517662453129212,10.0760013242486,7.862334185305979,4.019784516742656,7.555511385430487,1
-1.6169872057863752,-1.003514087169073,1.8308042354041483,0.32875110965968446,-0.5297602037670388,0.5132674331133561,74.62794992449889,0
-1.4041061877547047,-0.6553242931955364,-0.7842163062643153,-1.4635149481321186,0.29612027706457605,0.26105527217988933,30.347606526559535,0
-2.8307414841008285,-0.8412906455307181,-0.685429033053539,-0.8022772692216189,-0.16128571166600914,0.4040508568145384,55.939531087168305,0
0.5151007814455287,-0.14889183153233443,-3.837542430598083,-0.026513875449216878,0.06023020994102644,2.463242112485286,32.57393756249947,0
-0.38472192956224505,0.6030946846672249,-0.06942353941048662,-1.168678037619532,1.1428228145150205,0.7519330326867741,41.881877199619986,0
2.8055886218721984,-2.8037021255845618,1.1737141876005406,2.1904556258099785,-0.9905363251306883,-0.5662977296027719,32.0387570777382,0
14.083733538318814,16.38969241897162,22.067586086848348,5.076542734264179,10.909839738416517,15.228571017129713,5.296505783560065,1
-0.6489819156577865,-0.41173343419100994,-2.880082895367596,1.1907272561136402,1.2993968142644874,-0.8671461560495533,74.85551299762886,0
1.23528169102229,2.4341415939602205,0.45257653899774963,0.8474014325766388,0.17483301199147133,-1.216854892359239,64.59475988463467,0
1.4690021297600913,-1.908994523922841,-1.5023588493278568,-1.1304280531205302,0.7699773599307934,1.268389522403902,72.4611705247089,0
-1.7352821799587492,0.29172370485661886,-2.739742113432593,-0.7717807494932586,0.8786735481908957,-0.2395945081938096,61.556931299863145,0
5.468844318123483,0.18753086030389352,-2.8128105343630976,-0.034529656094808465,-0.9630156260661265,0.9771800008130732,31.21579832157269,0
21.550546201819767,18.462394357755485,21.150374693005038,17.051749889212914,10.923814891780532,6.764252434438555,9.900538501042632,1
0.11641743689199979,-2.285940595661246,0.7155747206965666,0.5607845263682344,1.083051243175277,1.053802052034903,47.97455756098776,0
1.0300705344173195,1.0275719018244176,1.0300953726120958,3.852731490654721,0.570890510693167,1.135565640180599,65.09834386288517,0
-0.6305384892806912,1.5179384409865349,-1.5456504290751436,-0.23681860674000887,-0.48536354782910346,0.08187413938632256,53.27990090662301,0
14.348166841414317,19.082292947909874,18.22785919951907,7.393598609576731,18.5757763573013,12.535676089272044,7.260913337226615,1
14.140904611216225,26.306508653040773,16.328764544248163,8.728612373957667,11.271068129748475,3.551090771301906,7.145959227000623,1
-2.5217679086700904,1.8357238941095522,4.2443123940252665,1.0324652605511468,-1.5193699659540134,-0.48423407286625136,47.79863393256308,0
0.8876388562924569,1.5492681068586736,-1.853860943156166,-0.05952535606180008,-3.2412673400690726,-1.0243876413342898,38.66009349550076,0
3.2648226078632705,-2.8602827559212654,-0.8800889733939675,0.13074057728609134,1.4412732890661155,-1.4358621511794394,55.15681292900439,0
-1.9630173020959019,0.9242069485265415,0.39811939114694006,-0.6002168771587947,0.06980208499001891,-0.3853135968617602,77.01151207124788,0
3.172033632290704,-2.475630997653698,4.266066749312533,-1.9520877995225019,-0.15178509503558332,0.5883172064845765,78.05952819119571,0
0.5619837354700653,-1.2453990396411876,-0.41624450071455044,-0.4930009346588328,-0.5893647569442115,0.8496020970210246,35.90824138108281,0
1.7991997508665014,0.6145990417532187,1.6257242376779202,0.6296288419236122,-0.8289950109220723,-0.5601810401969696,67.53073758204292,0
-0.041803187928296265,0.234654766617564,2.55532979157685,-0.5915713888358299,0.5470973811700379,-0.20219265243389406,72.9206375921506,0
19.62083176244221,17.349284728161578,18.48497982496359,12.380628101747654,6.7271172670661095,18.369549102741843,2.9321077169806453,1
2.4098458435571484,-2.393320938427044,1.5413566590462222,0.6670561034697914,-0.6991465780919173,-0.008817046245807649,57.47644411618678,0
-0.6181850183938437,1.607626102752517,1.227682682950849,1.3578807880999881,-0.4333034069025602,0.2038227275274671,71.09300296451781,0
16.48837878961846,17.977185855048518,14.58828699439923,9.807218057856748,15.084552903923658,13.083452405856159,5.833687650971596,1
-0.2175202969137152,0.8034234441978829,1.380287983422225,-0.40122047188583626,0.22409248181041677,0.01259240078179486,33.68982823676994,0
0.04902034851788543,0.9959965824908995,2.9022872155900834,0.9592708260852069,2.1531824575115563,-0.7673475628880495,59.21571559615501,0
19.708779878885796,27.380854196079433,22.75211919093025,7.692385377350387,6.406341314606568,11.967676686026023,9.109271844938425,1
1.4839260330589303,2.953317250859258,1.400485906724838,-0.13229944394246262,-0.07361111579190632,-0.28222118898721094,70.52766653909165,0
0.5909550488463667,-2.1946917371333168,0.681844397117907,-0.08641350683161347,0.27563515788740767,0.27872303497066114,53.434657989748516,0
-0.21725732817771115,-0.11096991659534745,0.5187786179993881,0.3023482903316427,1.5162333229338962,0.31245848109794744,77.23828649412141,0
19.211668430415564,28.23699460565119,18.574307341069478,16.205051418931884,10.679891611629234,14.612980745713823,5.609379715353863,1
23.29212243424794,9.206302567884428,12.083707436671125,1.8430712889595977,8.922372662221768,12.870169023183848,5.139894891598108,1
-0.9734289920854988,2.6688912817282713,1.9630947534601624,0.330700557063932,-0.014718258634936664,0.7964054296963266,42.91221941494792,0
12.49374047576444,20.438366374616468,21.736840158059007,8.837230767875827,18.22037043448589,8.722559969865367,1.7231987120162984,1
-1.0605152367448816,-1.5857456645246883,-0.21406071990911565,-1.035242322419374,-0.553649305347182,-1.1978778925888485,55.17086354274284,0
16.62474151424178,6.490394176322075,10.42404468900724,15.467497069778098,16.579870854005136,9.003855841774486,0.366832028905979,1
1.7028041847576574,-1.9758716915930827,0.05724111913565235,0.9686231563044211,-0.9722685477240716,0.07948245181753853,52.37061834117273,0
19.09111366265548,22.552820611855402,23.276654982732072,12.614537045341295,6.504103522059614,9.986816318690584,5.371065418185478,1
3.0462481545393145,1.0778200873693173,-2.074492308652913,-0.1903386780836082,-0.8756182533847572,-1.382799730964336,62.295862066580064,0
-2.7971351476382824,1.1259384733811417,-1.3012851382436539,-0.48712538376469605,-0.5923939242388692,-0.863990769679816,38.66867976473774,0
0.09704325588965398,-1.6619002328220756,0.5409136515596776,-0.05023810944913695,-0.23894804686640975,-0.9075636620415979,78.47352166376845,0
-1.1535426611366655,1.510782451651512,1.0018343752487615,-0.977555244798551,0.09933230542922587,0.751387123371789,58.580634473494996,0
-1.3252475178916934,1.1411973371863187,-1.5265183130850337,-1.804882100664519,-1.6275424378831627,0.048084946661381994,35.74184123696018,0
23.0314640460722,15.115540652384256,22.17846056032571,5.481172581369528,12.119216711661132,15.766274482631601,4.715761885501584,1
15.027419736378754,20.94164259230321,16.407607446748305,8.723771915734627,12.173932611855111,14.139683708322396,5.230654247691193,1
1.7422494068633847,-0.6520470643356823,2.4024278443278897,-0.4080753730215514,-2.038124535177854,-1.008086310917404,53.13398928348032,0
0.0368367583791034,3.3528746245505654,0.6538547475283253,-0.21910052880886424,0.8294055811834892,-2.211135309007885,75.32360554822735,0
-2.957172491559683,2.287508086413858,0.6769928149888282,-0.4152879139008013,0.6327818661062848,2.270692857804396,74.69462915254789,0
-0.9187217990804882,-1.6996887389295836,1.6606716330884912,-0.8560838259088672,0.07156623721939247,-0.4776574467651167,68.12293428703452,0
2.0750798885157984,-1.020032797709494,-0.5397498705867425,-0.9787637157823074,-0.4442932600761116,0.3773004930448522,41.462569761632075,0
1.7392118402113204,2.711275717609902,0.8268698064474017,1.876795812558066,-0.773789199103573,-1.244654703311417,39.079885840071285,0
-3.557440497808557,2.992088622978366,1.3087313127081155,-0.05558467091045507,0.2799686263198203,-1.1254890472983765,55.2944339442233,0
0.21878958920978578,1.451533247797384,0.9620184634734265,0.22388402427913137,-0.7904744554453119,0.4714683571359957,58.81441800834066,0
3.186373253278794,-1.0224313528623703,-1.9792096405171618,-0.12578692009964815,0.055724912288694604,1.0941915184709485,59.563771787246466,0
-0.31601579715797884,-0.8537621398948401,-2.024208750520335,-1.6548566718657693,0.8231705839619146,0.07331796718840389,47.31729971829806,0
-0.6715693985802564,3.338043050578786,-0.5191827027272096,-1.5031429531181062,-0.24574306408594432,-0.2727235697476705,54.91838863697399,0
-0.4618690604173559,1.3924127296268367,3.6979121898906904,1.1265650295477574,-0.26888869055483056,-1.1065259087416703,34.26748340393219,0
17.836233648920008,15.282876144331176,14.435771086614178,10.425720910767588,8.980091130316579,16.015971954330755,5.243902693275801,1
-4.156753309837886,-2.4812801553751416,-2.355056730549873,0.20370179813884956,0.28984226416846787,-0.2548212683723646,77.30577310668164,0
14.47764948270235,14.35842425026057,18.493728888186673,9.478619416051167,12.00191007768253,5.786965117420015,2.381827810467265,1
20.96550628984192,16.452267803430047,19.63066511121059,4.995545694458788,13.696108076827604,9.260391454228044,8.17443561738441,1
-2.483002461898245,-1.6326108181096912,2.6315330165643194,-1.7531070469382153,0.7563515692873813,-1.4130243453417775,50.47058260956202,0
-3.5069388325013255,-1.0898444699178174,1.943645380345471,-0.03095825063657335,-0.3357150728865708,1.3460442074647172,31.12346541600587,0
9.852035070118363,20.759318276547504,28.027870228199767,12.870366319172199,8.12340911922026,12.107749650527161,0.10995828658480478,1
20.588295102345615,14.371280934232672,18.93383382238539,6.97846827058671,7.5539287880322075,4.373355612607111,2.8869373677069987,1
2.6826238394002693,-1.767555577728537,1.147933918403351,-1.753573717908687,2.0813146567651417,-0.30455363848725747,76.84148696623791,0
18.899227093640295,16.325738638119432,27.875136768153908,9.810941389483963,3.7681907292933285,8.398474559266727,8.191023176741997,1
17.62783285449977,21.103360487753392,18.888505004666268,4.658622565159595,11.520791404023853,12.442342981135292,8.065611478614498,1
2.572537226809202,2.1244197018274233,-0.9074886170728836,0.6329416337934651,-1.5265518616977465,-0.057904907337784896,79.38340039983234,0
1.6369694692770793,0.26769530849199974,0.8932794630341716,-0.21327237596579143,1.1290694375351427,-0.08041577370899264,72.22746992675351,0
-2.81031984472892,1.00206668703469,-2.0849697484542773,1.2779268292381651,-0.26102725324679543,0.13498472081968857,45.76451689153052,0
-1.3011696831137136,2.087091818573107,1.7355300483417768,0.28303220539521634,-1.3494635714255234,0.5855034608585792,31.2200390778269,0
1.4267991804108915,0.09403442624749016,2.4463419011829144,-0.683431790130123,-0.5098575774999748,-2.4846115790858145,61.3752731609185,0
-3.363640650266458,-3.5171979999882947,-1.7452612547420214,0.7936579419803536,-0.3003604880886286,-0.8047869166603249,44.361949582704085,0
-3.8673566022151205,-2.414791663292749,-2.1411561593543347,0.6826232364571462,-0.1657230531466151,-0.8255848430174609,73.95591537810824,0
20.776884084034542,14.885647517883582,15.520154768367647,9.327540417498826,8.506402926493722,5.305719171951499,7.582384757040913,1
-1.6647111462084574,0.9428311127728082,-1.1044460885619425,0.6329318177555108,0.2029230208512997,-1.515744114997232,59.64699674208516,0
-1.2255773809687724,-0.7754031198719683,0.5717307814498099,0.334456789987025,0.6585442726728304,2.0102045387663496,34.34933799557051,0
-2.7586384560290544,-1.4618600798838381,-0.06625394574759419,1.7945578635177877,-0.5176112990361714,0.2237879516388985,72.56034570243844,0
5.053864851747243,-1.0617375458406413,-0.9788788850364443,1.044160877069072,0.6818914896263114,1.8467073257360336,43.35141350847107,0
1.1813096613846186,2.2174071611658155,1.640964362394728,0.5072740311072977,1.066674689589154,1.1692955904456728,60.93056891075922,0
-0.3342361606337087,0.29342737286664566,2.4130179330167136,-0.8169356709872361,0.3686733088729012,-0.3933388123273607,71.6067088978871,0
19.246918418553776,25.887266398817374,17.523522338065238,11.116086103081358,12.431586038866158,10.746436492625433,1.0250972799067926,1
0.35109165978101603,0.8170246967548523,-0.3727447887261834,-0.4046658233070462,-0.3629572789687074,0.174639269367828,59.10852300881366,0
-0.9602637353917015,0.25560539473356536,0.7342045335761345,-0.5258053873129568,-0.1310384069989959,-2.035240240625504,68.52037089038966,0
23.60926594713424,24.552719123461067,16.887936107722172,5.412165485066243,9.541638798768124,12.533070009214304,6.385259476640855,1
11.74230287904778,25.218823020366298,17.589244108037157,14.46918332635251,11.370901385510816,11.827012876615136,7.70921844644052,1
19.874889691698545,14.213002415508456,11.208644016383236,8.735608526253891,7.03667036812919,9.942843874440126,5.819714019143988,1
1.6812870979774481,-1.3052479586047818,-0.8923668664295594,-1.889540730945531,-0.4523063192490767,-2.4238793266289567,60.00102740596519,0
1.5716003173016644,0.8509151235699295,-1.933952286258426,-0.047711356141979855,-0.0036025390905684044,-1.1583646891925428,60.90778671590596,0
12.991899950525422,16.594498535570224,26.988432634247612,12.56337144506804,7.715284040868813,12.290331125424634,1.6748258225906976,1
0.5510211246965062,-1.597090631212365,3.623960248269743,0.35792572869176864,0.3932631513836775,0.6814450803572858,70.08640415348958,0
12.84211876564921,15.3535088122689,21.093432739239528,14.517297750158003,21.86004140688289,9.613484373507116,7.192017782722639,1
0.07600695633640057,0.2400626534365226,1.2270359454608333,-1.0227925651984056,-0.2573765374233451,-1.6685840738775894,73.41362527041903,0
-0.966372924598748,3.1479735265800657,-2.4515313260046825,-1.4643748802098202,0.22445181855997204,1.0470983026121545,51.930770959479524,0
25.38270174862948,24.900456770737257,14.872186492452354,11.583214133749635,11.976120745130956,11.042695063295628,1.7968310887024197,1
0.6476002552118905,-0.5829799579869805,-3.3009824200755236,-0.050422851721487694,-0.15673039822252585,1.06240150987512,55.740867696484514,0
-2.3111360962114347,0.6384466843910932,0.7485601111546117,-0.0868447771301917,0.8072931248110842,-1.245766059099699,46.259503211234744,0
-3.111797300979791,-0.5447919409996179,-4.190315045359971,0.25417389224620207,-0.25925044258022556,1.233686921376036,42.435713629381496,0
-1.6767749822357705,1.041328841068418,1.694158019970069,1.2225009148868804,1.214509285305348,-0.08952261024790559,70.28350764750266,0
17.345420136151255,12.825225677339336,17.050028064088103,11.793561174463445,7.644945855172817,10.037167010123651,1.4834320096208886,1
23.540914083687582,12.800470364372345,21.06386952531285,5.786337747305375,7.504924157216779,17.656125415467145,8.681422543775053,1
18.98782995086191,20.246142174598727,12.616697459111672,12.67363184376946,5.641627606821389,16.524503409127487,6.512329770414921,1
0.6052709304780665,-1.5085517000387159,-0.12827669318598509,0.3287624103034804,0.32135721545027307,0.42192075423528475,58.35081304933339,0
-0.48831327058129737,1.9281743365767146,2.378940977849281,-1.2276078151369925,0.597400069849858,0.7011727423108983,69.89068244293173,0
-0.30011117406505344,0.2511529069430845,-0.3461436485677392,0.015579047581467534,-1.0962750868952018,-1.4400508825942944,49.808634580462765,0
-1.9827846989126143,-4.30678022720743,-1.2779234953790044,-1.3230897934074983,1.642015160136369,1.0098170893426341,60.97451730048073,0
1.9635309739831885,-0.6496627670172449,-4.998811429747146,2.2909425725907417,-1.389572466763596,-1.6453987469568918,59.00861846136661,0
2.7685456370210364,1.1278182401047192,1.189508683330572,0.8534155587803077,0.7589285897867651,0.2811914239693758,42.174114828814965,0
-1.5079291777333526,-0.5613501537335481,-3.385913628390771,-0.09833962679474989,-0.9885911071509175,-1.103589317215771,70.15129489163317,0
1.836633212004626,-3.141001207246354,-1.979256273140675,0.9407711879882159,-0.9824873935383096,-0.2246331499970246,39.05746747673402,0
0.2107510122919198,-2.668050989836409,-1.2027352879024273,0.31978193414253697,-1.5929937335316693,0.440474737960399,78.146343761879,0
0.44782826812932286,2.7282808599476884,0.25044900529581454,-0.429405541125253,0.12229750303228377,0.5432980290363879,70.95944297133951,0
-1.4039833756135107,-1.3258018351018963,-2.805210543599387,1.7495767431869393,-1.243863235391285,-0.6929051977959073,69.0262757621931,0
21.168884404660492,20.068995487257492,17.073561705611457,9.480717201066295,10.175245887916438,9.411991993486046,6.070940360887808,1
-3.073895920052641,0.5355024487289244,2.918987206767043,-1.6853109387619405,0.3143834940548472,-0.002083797420183821,36.821987627836656,0
-2.8712376564268802,-3.82621285035805,1.9527679069242057,1.1040491364833538,0.30268534899598587,-0.5341483496880968,58.919345850320454,0
23.155314569940266,18.542713380142192,20.313131676905513,18.471423798503558,5.309586972554736,5.066127594879577,6.694869551981901,1
3.3451447736754067,0.8380380187320904,-1.4100237115168177,-0.05576907765770601,0.5583269125217224,0.0760053914124115,38.76514711788298,0
0.338721648072156,-2.8274289938099604,-0.22245212269740064,-0.9039076414647897,-0.7355299425897666,1.2360931752104374,63.2455862243609,0
-2.184625529345158,-0.6328168993896038,2.4261953999583667,0.14171691363990474,2.319329539981694,0.39331783939437187,34.456221605800835,0
0.2670818095645646,-0.3049396727610878,1.416217353377181,0.9567023167945841,-0.7859894605079495,-1.331232953557778,34.382137338191924,0
-3.672410746206593,1.0159826538250873,-2.206733212347747,-2.152890592952483,0.3885786045309641,2.4929995174327906,75.96959866072086,0
0.16365871709513002,-0.19777930638228533,1.8381529659755371,-0.29027454418865134,0.26739231407190295,0.3216978061960136,69.50152181535307,0
-0.3499195133908173,-1.5114903189856894,1.073019687140807,-0.8984679817910373,0.028181157369128247,-0.009118996644203544,62.0486038672666,0
14.952438989203584,17.06514348507277,18.283249624485535,12.118771017426923,9.718004887763636,11.946006575304807,3.1181613308525957,1
14.556666225185284,17.68671521898778,15.181754862868287,8.356275374803264,8.531103136180029,7.172972971127289,1.010458110106467,1
-0.7763536370824575,0.3408324447509754,0.3211479620997292,0.0030460201534144695,0.43693816974634986,1.1906462747863413,45.312681039330585,0
-5.10784226980391,1.8686398224785474,-2.733757396830842,-0.22476540189268354,-1.1701130260593595,-1.8019804375800197,71.37689477834371,0
17.923450754135022,20.896457498005443,18.597901842070765,6.1077242364737785,14.786286006657965,9.36588170789212,0.9808258078424459,1
-2.3861199098204726,-0.08017702531310678,2.336435443633729,-0.8629053387504985,-2.3026969895447165,-0.4449457601246716,49.72381392850177,0
17.558286704954526,22.60674801493248,25.052840025025795,14.857916535629387,11.106174667570667,13.197997014016591,6.139335847600618,1
16.173392243439455,18.923401529324543,11.264368552351517,6.113543845957394,14.801655631777702,7.3724228841144175,6.613706110704144,1
21.035655503918093,24.555794431590527,11.737054938172522,7.990150052357533,11.124718249077812,6.297516600902535,7.74633780637788,1
0.9117755441632153,4.330004689802168,-1.287036460760286,0.9278401280812372,0.0570131248970845,0.26859227886325693,59.12113291036232,0
1.076592158099266,2.1450146746196044,-0.7299054590857706,-0.8392096673390064,-1.0448091940210336,-1.9663565893760018,51.97024948472261,0
-0.442507247171544,-0.5536265997778413,0.6148133956182015,0.8157372125392968,0.8604734883597454,-0.5830774385689385,73.0684998181718,0
-0.334243427572823,0.5651599009765993,-0.49738225236709416,1.6073455760199926,0.49097495163825133,0.7348777860498175,68.82237232498623,0
0.3620431174074139,-2.593663895911693,0.7993759035052832,-0.651356893791829,-0.5286166817497568,0.5863640187550933,55.29263464759145,0
0.6176660251979276,3.404429889270476,0.48150635897713656,2.601683114180395,0.5655096456315442,-1.7607627591558177,64.44426510250453,0
26.34952252175703,19.973357649114906,12.020584689824078,11.778410672880563,14.786525946582604,7.560868382722472,5.542265141320167,1
-2.899713130961812,-2.212616362456684,-0.9083791166230314,-0.8203438245306957,-0.8171854666089954,-2.094120627663777,66.10354691013686,0
-3.397698399607291,2.914391519912493,3.362184629860975,-0.7509055497801141,1.166548590977006,-0.572997804990946,34.64953199115661,0
4.428503046924551,-0.5920344546597958,0.25289804564692464,-0.687937387463827,1.8613155972363946,1.8866146460894102,60.17438332982274,0
-1.249579093868105,1.655700191924836,-0.014085597849471033,1.312408621742632,1.1159020533653614,-0.6492655780759244,65.3840467370458,0
-5.547125725826897,1.6018732792589245,-0.8635915772804124,-0.8860424543316735,-0.8432606042937426,-0.13524289563203143,41.03059763556056,0
0.3796956724249286,1.153516132386144,3.723611567339263,-1.07669016922513,-0.34961218677780365,0.26166297269647903,50.495244484814414,0
15.361115678770304,21.85719495957912,8.520175793463554,10.681193448649577,14.131855788611222,9.220219166284167,8.419335667918087,1
1.027200213139433,-1.0654016793238228,-2.339833671420576,-2.8722622132816493,-0.027514905050636255,1.772251596669744,51.842535130758975,0
17.499229617600236,16.98163124911517,13.610087066217194,6.692478583840559,9.094084432393894,11.469462027264711,2.71949726128631,1
-0.6076616959724318,3.1362095894364197,-1.0521560644239176,-0.014019538257588698,0.10164428768951007,-1.131026391491943,50.554780130035326,0
0.4941547556126063,0.17466211583081842,1.4048131383021305,0.09674989495911643,-0.10954929146920354,-0.6040122749251271,43.007889548102554,0
15.86621441558823,15.290825061656792,21.16480875754913,8.201695847098875,14.070004916336725,20.652729400479295,1.1476887186921747,1
0.8576330006611459,1.3862112145262881,0.3528831105544504,-0.3670278390833223,-0.8275902206487197,0.08614388304637476,52.91503207643282,0
0.8731196083153356,1.8078696821723905,-4.725864871083677,-1.0097307047099375,0.6191542610051978,2.0574954697116987,33.11365529409428,0
-0.3657928822096803,2.7497528382963696,-1.2919283582490706,-0.7991920066502536,-0.4827435221820324,-0.9533286082587124,67.83757528443175,0
0.6461585462320582,-0.5047070042525752,-0.5836225378310882,-1.563190808696657,0.883109777147159,-0.07783719701280203,56.93508989763571,0
0.5975058167313725,-1.5035821001903686,-0.8527151924110866,1.1484457091967548,0.11327041053776446,-1.4382779783173667,44.356897904228774,0
3.746595552435091,2.160096131429297,-0.8946437913175024,1.281016361735113,0.0678555105274033,0.8527736751222195,37.8977411417674,0
-1.287099664634924,2.0599216351623224,-0.6695506642130817,-0.4036484632419967,-0.955122579349353,0.42359906559346105,52.016170918417444,0
0.04843891334551614,2.8244411108308585,-0.1592827824914303,0.4523717962497339,-1.0623935281468797,0.4283070972076486,74.0963879152322,0
2.3747721031295024,5.179127284037228,1.1592663464271513,0.32579631658216646,0.19438430157733602,-0.35316629281068834,39.37059720487911,0
0.3369219525392286,2.6351950712159193,-2.0130851305592823,1.1398785611290454,1.3171150673398653,-0.11806852699107874,52.96325985866069,0
16.04120925478089,13.387949077507487,26.07687844734721,8.71071812315464,14.868634083301986,16.085264207689804,3.523749466096544,1
-0.20604640279443157,2.450264696335749,0.07590087258089194,0.13554459215862996,0.3724346469822128,-0.7900663251352782,46.25520077158495,0
-0.8041334890333413,1.0485293552863377,-1.0183904809709277,0.7775312408149441,1.3758661731839563,1.0125460010538367,55.63273765725265,0
2.057365221392784,-2.633497693644114,1.44722117445775,0.6674607816393121,-1.2120898919382652,0.834232665740161,75.3597515352915,0
-1.9326247715302651,0.30027223274276926,-3.4097571082646474,-2.276991207533051,0.14082842652774988,1.1005976067613101,49.02002744852048,0
-0.3750682401097467,-1.8851307828861312,-0.4437218075906126,0.4216844682644445,-0.43522223280062844,0.7505868538357765,75.53850808219576,0
8.573999739894415,16.518662782455593,9.968114971954098,13.11693613725443,14.200442384435657,6.544195114316777,0.4814283597835345,1
1.9006151839471515,3.4212267451638505,-0.208898437074943,-0.16882172319001063,0.07005216311318138,1.1618783026081905,33.18204546433212,0
-1.8547062683811482,0.47673796546957026,1.9503952595648595,0.5010941699398452,0.1895816165987434,1.0010460925671412,55.872317587752065,0
-1.3081513662548476,-3.661265793712914,1.0224051990499614,1.3736585451629577,-0.13744851462769186,0.9528745472029388,60.3544789359377,0
3.279929058742786,1.4842549821437845,0.1508672778031856,-1.6019658118971685,-0.24606248812994858,-0.8432465953161917,54.38335343106322,0
0.24640961356897134,1.102970752080935,0.08720489274490745,1.695051040430753,-0.622649361734452,0.1946074552372427,42.71957904209235,0
-1.2235381818105708,-0.07407359409682404,-0.8586044490345199,-0.692420979873856,-1.4063174636718339,-0.08310557262869477,60.53900355378841,0
0.16487950586900657,-2.915102998929861,-0.6184181540997269,-0.7521564055905832,0.31917451041918043,1.3404504460231446,55.63338629782082,0
-0.3202655911332808,1.3426801529009313,0.4263932564753783,-0.7519693317388191,-0.31905393566661816,-0.796025856803489,55.37059693589045,0
3.802381371506015,-0.12132162762924155,-1.4168135338209256,-1.5137143926128271,-1.803139676255945,-1.5841359430054898,75.38055012782775,0
-3.162381404064267,1.790076628152231,-0.966122103366879,0.14679301198554937,1.6122206282554243,0.8968393158655319,35.72438190329525,0
-4.30363080265861,-1.4383066384848402,-0.4222604776553889,-0.987179527151184,-0.13125696709230472,0.07685188295876821,34.00900070409517,0
0.33730934393345535,0.8838812991388181,-2.180798154885692,1.41093237974627,-0.09858813228426173,0.018849622944847662,61.80480232047711,0
1.9062732678264902,0.5742483304036484,-1.2248747492808758,0.36150352520610163,-1.1437262073206618,0.10855970577652314,30.585330536545204,0
-0.2570750228778615,-3.763698090995278,-1.097449815481923,0.09284490114111471,0.15985639199740037,-1.0276751409259581,47.15836765863291,0
1.9389144010534736,0.8543887237433697,-1.292454619687606,1.775310892609512,-1.19363683175648,0.9191541736100015,45.31567493891063,0
2.7849306001286576,-0.5000930291979055,0.5773872585597141,0.2603218387712207,-0.1343087414705478,0.8108082731597821,45.94334091605694,0
16.459828579071292,21.898302661346698,24.55154373059804,15.582735243159824,7.751327893686792,9.16311250502189,4.096288948952321,1
2.220604723965528,-2.3668123765330624,-3.2577803671490293,1.272487446598739,1.891387849550339,-0.4620960186513983,37.02764837891804,0
0.010985100486786614,-0.9514105274623937,-0.20425688006999865,0.4092583875972426,-1.0981454780308466,-0.3618113392325675,31.167604816409295,0
-3.6075628435563565,-0.709974568226576,-0.18686814183399902,0.22898242506107808,0.23957654036320872,0.9039227507368559,71.33536798707436,0
-3.0793330385466398,-2.9725540599005877,1.0579158727850406,-2.038961277005416,0.18330021210499314,-1.1802929395898938,57.0852406205002,0
-0.4383120394261235,2.4554417542783566,-2.1268040131419017,-0.8734096340878084,-1.261454833655109,-0.865039226348993,78.32086929332037,0
1.9228433707350854,-3.649448093801478,-0.34372597292658347,-1.1081645311908017,-0.20528709148810095,2.33416358012704,50.08894003271621,0
0.5837235240000299,1.7989299422964917,3.9213825443220935,1.1273582431747582,-0.44791447968698456,-1.2758320865699382,31.972976644544964,0
-3.0490425732383484,0.4818499945789373,0.5317725961186659,1.7691167002632864,-0.3617630688368137,0.2801213889694491,69.71053312747027,0
-0.2492355923802594,-2.345183217705485,-0.02694364333031592,0.3905228975650011,0.2552733874135629,1.0458967154958694,48.766495395980094,0
1.2795746635910745,-1.4505379559221427,0.4809424986604138,-2.4197452474117624,2.715946572312882,-0.26971853155733616,73.2788572812276,0
17.32372837303154,23.017832800916427,29.666222021426506,10.769130697596164,17.828254562166563,9.034342358319176,7.227069576982284,1
-1.5457553356472182,0.8141045742490702,-1.943313469082572,-1.3796181647889305,-0.6267172245899651,0.8623934723827588,40.53524819336016,0
1.9062500907521733,1.026170840194586,1.4501915736959943,0.5161782871149584,-0.6414815952229522,0.43192254467394064,67.67139611284846,0
2.377826742949286,1.4166076944021275,0.7028964150831658,1.0701502383164274,-0.026521259249060063,-0.8818746512277178,33.88246673358025,0
-1.350356549948763,-0.28903734143103565,-1.5848398419999226,-0.3079615296390403,-1.8936146669537857,0.21329370737293857,33.84310376380817,0
1.3184913368648101,1.8751402752531168,-3.2151197287379483,-0.7627247785662142,-0.7691423497872982,-0.9399031011088647,70.17413716484424,0
1.658949683863497,-0.38765227754560705,-0.5290296826212215,-2.0038623644067535,0.6354180302092264,-1.2392583948534726,78.94905575874044,0
2.721317191677302,-2.617640798238224,-6.039024311641651,0.18384954475369486,1.8005111815108537,1.2389463529394373,33.58879031132565,0
1.6142451932746207,-1.9470923994089373,0.9527155387124385,0.5054701591666269,1.0602099074988798,2.7596600389110777,37.14379806697059,0
-0.05114862438398887,-3.5381518097782365,-1.3894262621781164,-0.409282438113104,-0.5240883979345925,0.152354872033722,67.43226170631,0
11.270645382633926,13.903710701392512,15.618895632276704,13.49755672285091,11.0502453160077,10.774359645470177,4.338174195765295,1
20.61121840624005,13.917980069494792,18.95753469396365,10.273482517241044,5.77845193163005,14.233938174121299,1.0536492225085647,1
1.2315422995422831,2.4077688743376324,-0.2788925513619991,-0.4501892648514116,0.0005279588565972928,0.6012067489291149,51.63645680098523,0
-1.101073698983167,-2.4414248518283173,-1.0162803952946218,-0.14778031881747153,-0.4532484090230134,1.4524675344707454,71.10899434082117,0
1.2444142880868039,-2.2776662355615382,2.0782235748405373,-0.07576428653545988,0.6704806172412126,-1.0718572330401555,60.38760611263613,0
16.356907621255075,21.015937155411716,15.279429989429037,9.348828375710823,10.163676701582885,5.991250176874109,2.675926767279715,1
20.690308600909045,17.79159598805053,28.08953981916619,10.865267526274003,14.21444959697464,7.106148764518848,7.729214818761151,1
0.8769514776194546,0.039233315387979806,1.3457224719336398,0.591814133741378,-0.3540407109410238,-0.573601772896901,30.877618168331445,0
18.86670832185204,19.219765989542502,16.883988726825976,15.95945375440833,3.596384086093938,6.686011900879016,0.6569485895436578,1
-1.4862685295359677,-1.5940056071643638,3.3429657823641845,-0.10755913185890842,-0.6950436601497395,-0.041169476912550004,77.8894900494102,0
1.0741816661222872,0.10325275342241592,-0.41145518165594647,-0.6500166686704533,-0.662130845467599,-0.5978083864853595,37.0401474446338,0
0.7865384469404438,2.82598951125366,0.6514147156263995,-0.36958552891713703,-1.2981268850546304,1.5781068079115141,63.70651477680315,0
12.554599419260978,17.220892628354484,18.18930957504475,12.338290511798272,10.01521230449275,3.4947225841536635,6.796203327351078,1
10.880214237749275,16.666738353827927,15.85377789850669,12.354213079082879,3.6075025924650097,11.848690664327771,4.369958856656209,1
-1.4332797401044894,0.3141091628188823,0.32548882969279186,0.041379052585847835,0.5487082679850316,-0.5811460454500165,75.39493968898097,0
0.05336211422107192,1.144185556809843,-0.16977963700470672,-1.2433239284060988,-0.9614883696555376,0.8308523242793667,62.03075917744437,0
0.4643118994840701,-2.4062652040333856,-0.012703113545737468,1.5622551319504216,0.6184883804564755,-0.2074775226838726,41.43383898018044,0
-1.3913427556964042,-2.1683827820446497,0.9391436366968654,0.7141034997200926,-0.15382602719836666,-0.872929676739566,31.458488182263224,0
-1.5923414093874892,0.6779873706184928,-1.5159844450373474,-1.5663497329640925,-1.3441144703631869,-1.6032604668159496,67.71324866735114,0
0.20104018901632392,1.1754633049598848,2.383917712234233,-0.5922665308251153,0.4064774772384181,-1.5796155074058769,47.92892307624366,0
-1.4201622380808752,-1.195419027466185,-3.0525419934444242,0.03257557740856184,0.2139038682014817,-0.18941367098154974,44.12393719885134,0
-3.0804952640621535,3.966772469703423,1.098461593003296,2.6342220436499586,-0.8051092398862925,0.9578822281769765,47.652519580015124,0
2.822101802118448,-0.810820015227557,-0.7217828388492142,-3.471429891938383,0.40902805374263734,-1.3255099116824065,39.306794887667394,0
-0.7324630786365233,0.8877604604348713,0.022283126097514875,0.709641290505807,1.2656295355856315,-0.36879593667783545,71.79129639552579,0
2.074094577479859,1.481181736206094,-1.9043576134786988,0.42265506550160375,0.10947060404728903,1.0525289413496632,44.123621318500184,0
1.380473600760545,-5.1167367665142045,-1.46302680779266,-1.0231955113182944,-1.0299346709057469,-0.7490314709550956,30.07369110431557,0
2.43474713950326,1.6411108380127457,-0.5034613639850102,1.1336234718590492,-1.062297155166374,-1.1982833857471582,65.63106665492563,0
-0.9205268031666463,-2.270921787396261,2.9194637500758804,-1.7201025509478183,-0.5984259353435604,0.22857652751789734,57.224847955193255,0
0.9606093060265974,-1.1387674002962545,1.1369604505491966,0.1053093208790869,-1.5884645404175581,0.7929348534931071,65.72120820356211,0
0.06665585133160401,-1.9123537662992944,-4.618367462569731,0.15705360540145066,1.0819420597408491,0.9955324690830808,53.085807190655956,0
2.174928348062994,1.8483236477118055,-0.8452671214431162,0.6765980166158473,-0.5359591454092917,0.5400242316169221,47.26709761224439,0
2.116414093887815,1.8751202444095298,1.2672230811516627,0.08796882105283044,-2.3912744310241485,-0.07487593820648959,38.15176684657955,0
-1.4249883856164751,2.8888407763073833,-0.12057798278322357,0.4547951696423805,0.7741314616193651,-1.0014370765050777,70.85640710077925,0
12.414293365617448,12.939525571012116,19.88287007569562,13.239431366548105,7.402433225025019,13.088379155901158,6.248740996069989,1
2.423887970772801,0.5225010624677121,-0.7385542784924063,0.14338846734225108,-1.77623523289832,0.40865281148067084,45.338829976107064,0
-3.0447183724357822,2.2253767499798505,-1.2585267873855774,1.5337277099164992,-0.5358014630522978,-1.7073579575929467,64.27219416109509,0
-0.31179635587333504,-1.0965745929812019,0.3200364517055754,0.501782736167545,1.1173988159024608,1.4484992298929262,39.94960694797184,0
-0.826930322246552,0.5205610131657723,-1.9275178524212218,-0.9571509148950429,0.34378788154988543,-0.04865235157045115,33.3751273341911,0
-0.46080142841153465,-1.8484662885366088,1.7803968222495736,1.0352493347237526,-1.8461878622380938,-0.92951086019241,49.880618927643525,0
15.266599577063673,16.641724448369732,26.367260451492683,15.361844207161392,4.8016750522896094,13.318929671516699,0.15110684214475034,1
2.3798227944823354,2.027351481087727,-3.149958938866048,0.9260623778119661,0.6556014275495079,-1.5365236149437833,73.30478168058457,0
-0.4298207103001564,0.5535868986505766,3.3286341962492703,0.7247238578942587,-0.8645657272783016,1.6953884584519632,30.769744584565423,0
-0.6542363931776244,-3.2471104760462666,-0.2195390076322847,0.49748525730565785,-0.38538332752521576,0.4204524772475584,63.62302490125144,0
-1.7287821418283615,-0.2818558285552396,0.6330806532172638,0.18966087706342083,-1.6054650897190463,-0.43900595087122857,51.72016595033049,0
19.7959152459604,20.839708715375657,14.50697582201973,6.517931576609245,16.82005658882812,8.796786751132284,6.067317247174364,1
-1.160106482740086,0.47880900107075414,0.9993702206058677,0.4720022709192744,0.07595526791608741,0.7426824183597224,40.0141008933813,0
1.7383121287785464,1.7745816745334841,-1.5265722083571631,0.03793783544760203,0.6833289928110694,-0.20931381957936157,59.2224454878713,0
14.970695896205534,26.59688953103648,27.96257676584059,6.933373648866608,7.80177145636568,13.438351547919208,4.439194545063778,1
-1.3807732522773524,0.00818601535091253,1.5863387335861958,-0.01653575024762565,0.25206034270527783,-0.3761323809741358,50.48355266879963,0
12.960930506312843,12.41462928769127,18.498028782607204,3.360977658087749,1.4207891897990486,12.131333203187202,3.53789158736436,1
0.963732123436983,1.094529594755934,1.0977676706347288,-0.25495579355369785,-0.12545426000290022,0.3278795241593574,47.72124743965274,0
-0.45959926115038763,-1.7028128685206272,0.3504228378170241,2.98525900260341,0.3674816654743044,-0.3135296861723979,63.84703914984187,0
0.8401889809036825,1.213701186431342,4.113087129659083,-1.1308884353259157,0.47363207681145447,-0.9263811299815384,38.96266278696404,0
14.452100726254137,11.707475446623327,16.914914747878147,8.76606884617672,19.70686594538209,11.731839301442784,2.4535231416621106,1
-0.2921736430633592,-1.1858530660960438,-1.4739723608335114,-0.6984887957236937,0.11255071500822862,0.4450358641161897,57.8439221586048,0
2.683401525883985,-4.661309527093799,2.1718533926455947,1.0552188513310425,0.0004454941875451166,-1.2971686218848764,50.5979047517051,0
1.0977576876379127,4.438402543923557,0.5036735012472376,-0.9168846917185619,-0.3357309949197217,-0.7894453602409877,37.14209824071659,0
-0.9457028446992863,-2.5688607488151995,-0.26417401103828697,0.1767547933020496,-2.6847880471174923,0.2595735614802209,30.90620205228649,0
-0.09140046219355867,-1.5299838975122548,4.057257848539746,0.9584765276047547,-1.0964024861514015,0.8382368795711403,30.49893883292247,0
2.4889961520421156,0.2640418452351144,0.7228840738946507,0.33834666692159093,-2.0858158589232887,-0.18686959685039925,69.5779101295685,0
0.6674557271237461,-0.5952219242333896,-0.1802494819820225,1.0233855816274011,-0.1845846632453155,-0.6981955330916091,70.17688297313018,0
-0.5514043858417328,1.8813922876453644,0.9923298111958726,0.04426797334911382,0.19153929944483014,-0.559742473595482,33.705271128743355,0
-0.5895585685994871,2.6923565272532497,-2.15574362275438,-0.688717666422915,-1.2542988629357519,-1.4709087571875983,33.43568388619805,0
3.5233778615843847,-0.5656930923555866,2.5787937268600487,0.9680064749406335,-0.2089541552240141,2.110135582085623,30.2656737834173,0
23.371236169723304,25.63093158680831,14.396801640840252,12.115325207252079,10.603480853110138,9.528503741673617,7.499777984520708,1
27.04653174866555,16.90977052303813,13.761830356904575,7.391644445627757,5.6414678506304465,6.860952367489187,2.1491263703639585,1
1.701295335564502,-0.31348415156455217,-2.7447492005988114,0.031044897762356697,0.22226613244824175,-0.47933686144085164,49.13993822181939,0
2.2166753732743008,1.1935655593499528,1.8532110160888142,-1.0985508408063949,0.09831019223810258,-0.05282800457476905,61.81871407666872,0
-1.6348017938146997,-1.2191356576719656,-2.0266316711954517,0.7011863260703732,-1.5259297187725958,0.6178748004645681,63.09844723969343,0
16.336813408245206,20.45771060438655,15.309813784312889,10.267662896949474,5.05862473141598,14.658660834006287,8.979191869576658,1
21.78394339993491,21.06234397006801,12.916584357117515,9.023678105303194,9.842770849489476,9.462012862393069,7.837382510752365,1
-3.62407780225924,1.2810671832620677,-2.402606699535668,0.6918811448550872,1.3349032478434442,0.6297498783986742,31.946900834383282,0
2.1428226037749827,4.040098213859294,1.9335209252178933,0.3305733926254358,1.633948183523648,1.7547755448465847,79.53395785328829,0
3.537543566518841,-0.9842870303920052,-2.708036716996808,-0.5531921834348867,0.7036416157931751,0.15915894533210567,76.45697600077314,0
-2.9416101633465344,0.2823385973830826,2.236915289695754,0.5493156445582286,0.6918098218337286,1.5973727899525147,32.667399849444884,0
2.379030085330084,2.342241262067854,1.1165833495115935,-0.16037100058244824,0.0013796510079850618,-1.2767729521310867,64.54419882754114,0
-2.6233655009335677,1.7352641678122718,0.8082033100180169,-1.0219741103907962,-1.2060002010724695,0.3734932694017224,65.25695727852818,0
1.9051967892978126,0.9473862734644549,1.0461580080047888,1.3308671803671674,0.8465180917273377,0.4997664384960225,70.14054674122502,0
-1.96052235259502,6.123893930812438,-2.2063655146164662,-0.3125427371001645,-1.6547282764099975,0.5387981587692622,76.06537561064877,0
-3.478131262208868,2.2258113347618633,-1.6148708029392291,-0.14900519936386536,0.9315712686810645,0.2612666841318994,74.14574082593612,0
0.8575812798774486,-0.6822158050974346,-0.3329382564704578,0.21187867865182275,-0.8955560935463348,0.9960086593886697,70.13201561764649,0
0.5773078616149682,0.14955253584393718,2.384993118062942,-0.12011364321136973,-0.182420997152417,-0.4846287640039644,33.3508268875605,0
0.6861340178518704,0.6169002166630295,-1.3325684010198136,-0.17769397711340018,-0.659602268519233,-0.7048684538154905,53.455360552378934,0
-3.4044265321600227,-0.9256313726790222,-1.225389291755217,1.0518950572656043,-1.0149348063096417,-0.7611863848144755,36.48394891121177,0
8.409501997481037,17.249478892072474,24.760142380903574,11.128749629721709,10.94567144943973,5.7479280336920135,5.055087603898639,1
0.6996000491358151,-2.0081091936840205,-0.19092849417814606,-1.7762463334664518,-0.08059974929676088,-0.8330560570007587,45.323173402141016,0
-0.23353183159049326,-1.2711156828088068,3.4777027037066626,-0.3212427661179117,1.8325570434792018,0.8141517621182666,68.8524642825878,0
0.7875945964325031,-3.85534515869122,-0.557766788301513,0.8451579711843216,-0.04889718347410554,-1.405189846803575,67.0820725918021,0
2.493783431069439,-0.12400801873206349,1.9028985541161731,-0.36650702036805183,-1.703871586826719,-0.9244659881295544,52.69949555998495,0
-0.48676795875003614,-0.5996763925497611,3.808273179146014,1.6259589153620633,2.218780233448134,-0.1590452104000513,41.49133628988092,0
15.258656025374615,22.166669558901535,12.4756860346874,10.882165708055467,14.871836609222234,7.9472145419464155,3.673907286970705,1
16.196760439669042,20.694595925718673,19.480924023655067,11.50086782862865,15.416076569486092,12.75556372996652,1.520485674244918,1
-4.1740540372041375,-1.1692354613143991,-0.062117865741803904,-0.9096834169818336,-0.936506374789596,-0.6677795564688862,41.907332683284814,0
-4.476462466649944,-4.241400305270132,-1.2137303557143508,0.45768658605355206,-2.7475048427252347,-0.4997301761516306,59.8455345273328,0
-1.0524957130348422,2.7766755564168957,-0.7700436234257273,0.38298898474092846,0.14125714008746323,-2.1305664798072006,60.756457027059994,0
1.0165372793491791,7.8524754128726535,-4.168225878997177,1.7246966497611085,-0.28744751940035557,0.2873289044030093,31.24858310585248,0
-1.1396658564775175,0.6590174711460183,-3.0343473933433582,0.7505791675217656,-0.41619440488525394,-1.1300693390403578,70.07228881114769,0
-1.0706701740324462,0.7169072364192405,-1.4619125514309466,0.7579218499236196,0.6855077387902041,1.8486088332964115,76.45723586058438,0
0.1961350790778891,2.5917435637260287,-1.4376647752174607,0.7450053128772811,-0.19469729611668168,-0.06418817710849775,78.07461622870561,0
-0.23245808624391634,0.4294263663410527,3.156236115124369,0.9854496856152184,0.8691545924968965,-0.4555395260238707,77.35807314501238,0
-1.7784816564566486,1.9106011164755057,1.7520935850595885,1.472670675750982,-0.6039806259692295,-0.22954865536034708,52.13990682718688,0
1.9931410211588945,-0.9329907584563959,1.2809595904016475,-0.19050310599781134,0.32405702822156063,-1.1476913898156673,37.52361355029987,0
0.17041889926780213,-5.9822719418014465,-0.3737923163239697,-1.6304732437151401,1.205994516546816,0.7774073527645112,67.69340413549565,0
15.355111459679923,12.717211786198735,24.115415335476627,8.964582398520673,11.410019873427519,7.718594534345278,5.314549141893053,1
-0.12532904706512674,-3.701263283389705,1.5606856232328923,-1.6247979901029892,-1.2090343969891855,-0.23833817231357088,35.829153727784835,0
-0.554632113131961,1.4303248015213692,1.7043577696160368,1.2514564218142645,1.9094186522934937,0.8098893216611167,74.91932332920175,0
18.74455037923186,14.602795385341436,20.116709743042875,18.32306361615676,3.0226771228869698,12.328977910255043,9.38315728651316,1
-3.815615115754782,-1.7207700215590038,-0.8272110668432885,1.8876876573401904,0.5565531245337582,-1.3354815690998914,42.642905912505555,0
2.1653821077741466,-0.9422493036357572,-0.1872723774783417,1.32579664754219,-1.28716356858425,-1.3971181851129912,70.2857262834109,0
-3.038692150953685,-5.664311196221138,-0.9023177168179976,0.5517407999109204,1.2002617497388293,-0.463161362085399,71.18118053744868,0
-3.739483399390841,-0.7770415503660185,0.3808477798501155,0.44921872128503426,-0.5098066931908826,0.03444101170584135,53.77980959110042,0
21.051080847946114,18.784864804842172,15.067343652180323,10.896865617163172,12.858439162546471,1.800234885690088,4.032077561332522,1
0.8066007804905632,0.8552345631695646,-3.1227046715545996,1.3798386997400571,-0.4652168666180802,-0.28879530269948617,47.7448841743277,0
12.000701389102009,16.5387239227808,18.765509964671626,14.072628990595007,10.056976656054848,3.6945931644022565,7.314863597031158,1
0.45052823449509904,1.3854455102337189,-2.5386609930933983,1.7025146581296056,0.20232879642280202,1.631856899089109,63.871903561414726,0
1.5503109880695662,1.1060801717047168,0.4680489087062959,-0.24852861807444937,1.2005316584738726,0.14035986984804696,51.56508531705073,0
-0.3716915043854946,0.6199979663311102,-0.11317697779979168,1.2189707897936632,-1.9511018640386248,0.1435879365051602,58.65211003095078,0
-0.1889174288840055,0.8392199440482363,-1.7277659211795322,1.279464931657751,1.0417246640588513,0.5835443030118876,77.33781223461204,0
11.534292281206762,20.861951555878377,20.253017064312694,2.5207346418713437,5.352864624350545,8.86744441302493,1.7093640242084829,1
16.13168960867915,15.463642947030937,15.030484139898489,9.575114024631954,10.333924502079403,7.920099646369913,3.9289510889317905,1
0.14536104865868268,-0.8229862891243604,-0.17846830844289785,-0.03757064497948127,-1.7312013034449254,1.494938227453236,78.69002066785748,0
1.9030995411480855,-2.0423249151206004,0.9469437980704569,-0.26764109089879357,0.8467707752164937,-2.1272274203514954,32.52865519121144,0
0.864525901268311,0.9400883747364043,-1.4152517896440522,-0.7121738641760436,-0.11066536855732945,-0.8966422273152082,46.87271394821145,0
-5.813976438643283,-0.7496441132436122,-2.0770876416879447,-1.6312758154609455,-1.2374266382225725,0.10940847183297006,58.59979391417964,0
17.51688164992555,15.920165360263207,13.271269696516095,12.432984766739875,4.73147232021366,13.104111655373902,8.860861088135163,1
-0.6250323213513408,1.220046339568901,-0.9382827301581962,-1.4281484954450976,0.7613055634094525,-1.1459005899823282,71.30323422741428,0
21.026118505091276,23.57716648690567,23.26395778451357,10.894993278297225,8.878923582145733,2.6960630334894793,6.193899693665019,1
-3.0700804950647194,-3.7600200678155273,1.4254240577226627,-1.8831502080585838,-0.37231905293792283,0.4373131870389607,76.72165193767208,0
22.501992941975317,20.25612659659254,23.917468334449637,5.287836530494477,16.66889644620455,16.09295448684903,6.825324595377216,1
-3.440891220473425,3.6553619658993926,1.8359353413327244,-0.7658600900863026,0.7289091555627822,-1.0372657409627284,41.66664113246633,0
-1.6164368175732728,1.4198582584010535,2.1457734859857873,0.32543685943381034,-0.28616863668797066,-2.1148662950169905,76.44297749227829,0
-0.6335302118712943,-0.04515588218883637,-0.37123493583584155,-0.3217062178214337,0.07587738995981268,-0.27269458215246056,51.319917840081125,0
18.981522084621776,14.01093125831332,21.141910180188113,9.041970524940222,5.729460597596089,8.881726782933828,7.14718833502036,1
0.4579927849186805,-3.7158029027965744,1.2064950011427875,0.29815846599052565,0.6386601686431024,1.0581183250871502,63.98165911975718,0
-1.7621366733225845,-1.424441527298102,2.373469240354662,1.4363354057059785,-0.23811043631205406,0.04600274725327412,66.43890272253238,0
1.3308336473835574,3.8824348729274982,-1.7566461543594778,-0.3780078990182172,0.2314459225255723,0.6464895377257707,35.17170574302417,0
1.7628150578471422,1.4422707250911633,-1.8325482011274499,1.3554428011054958,1.1701987091966037,0.13429649724779288,77.8815823136294,0
14.86133046957747,16.55980563038962,25.092656725740184,0.04876537385968227,15.107861544352751,11.352093924406832,3.2694102433667527,1
26.66024645684041,21.51440899297561,23.178623212915163,13.278913326764048,9.999523405763625,14.333361751645263,7.302491895295712,1
-2.3637482508416023,0.8989478256646137,4.1720940990742275,-1.0147594931858521,-0.36146276669398575,0.41644603810145264,36.277489494923856,0
23.519386716581288,20.375838732476907,17.98798079540573,7.642913392842775,5.631345469127641,13.339005305299528,3.0777090529314908,1
1.672657438670912,0.47765877237282767,0.690150753891701,1.286503119071931,-0.8021545915096441,1.366154628273648,62.04827640493789,0
1.1974780319862803,-1.8404770595527544,-4.050836166640959,0.8089247222790114,-0.37418027599018366,-0.15556569452183558,68.32636581108136,0
2.4474206813385817,-2.349682616765873,2.8517894992491777,-0.5790453361681495,-2.2562499347482268,-1.1784403468600457,76.73649577441505,0
7.675213062076324,14.570009791402892,13.361079454696196,9.04249259396434,9.146680802762923,13.839826697734981,3.8727441142484134,1
-1.418041915260981,3.9065182750531364,-1.0517593517904078,0.17775010626803134,0.4004813865063287,0.13106518621584873,37.571615718498165,0
2.9018550965584238,3.6143932872757705,-3.3653173882453715,-1.0240285908863795,-0.2798103423770061,-0.9645377949101913,38.13304075527426,0
22.308180622489722,18.695301993267087,10.115017589045014,6.788702224196631,9.704108545622487,9.69733758269668,4.327714843418189,1
-1.512646849257149,0.3451003836083805,2.4049554953060164,0.3171469847104752,-0.045861259369021544,-0.8312707739523109,61.50465634308317,0
-1.413459527038479,1.797296917369801,1.119154123020934,-0.8135303493662359,-0.10137825626420019,-0.4927727282429369,55.8141649598837,0
0.37352410969648037,0.9453261121534268,2.7583251763949956,-0.08338014443846556,-0.5899092978657563,0.8442832280974177,36.608982887693585,0
-2.529372863512117,3.0585931016790666,0.26328913383856906,-0.5895673839924012,-0.23433491104206355,0.8074447180083516,40.81663888154135,0
0.6516817042958495,2.4166956351471263,2.2829286359445016,-0.5593299381372452,1.2691726564583794,0.21294997367162288,61.57293962915103,0
-3.043193685265339,3.493477875016693,0.1035677023979069,0.5767938239138171,-1.3440446284718441,0.5053265000780651,61.28253947136382,0
15.414084580969657,15.259168220153768,15.308819070044228,9.456581134447022,11.144779036192087,0.006025648514196291,4.832942849663252,1
2.177539308433344,-0.7526014498499921,0.03763809948119685,-1.1716543473175618,1.6957228778108653,1.8972886947731116,73.90167564222284,0
18.261292452487417,12.696974668016995,14.414919254360319,4.861662937200123,13.9112621987448,1.577412232638702,0.7675806188873802,1
-2.227038464855985,3.5403352312945455,-5.281795358687412,-0.3234378675446039,0.11038963910769706,0.5074209278332887,66.43281421183013,0
13.512542184163951,11.439087612361087,20.513574458866284,8.606826185674171,8.015790749841022,12.382576230278879,3.993325801992226,1
0.6459490072353363,-0.1220079437107671,1.0004809388731397,-0.5336003064391669,1.2208212988130478,-0.8767737812118448,51.000550214783146,0
0.8695401291137823,0.9508613650532469,-1.5911141358817646,0.4243939378610126,1.2795186697601588,-2.2168188393540644,50.13697423734153,0
-1.931329607046416,3.2583327298018903,-1.163564066784108,-1.1738799644089726,-0.19793772898468187,2.067906338163552,50.91947666891667,0
2.9948633663592528,3.715404687075465,-0.20686244858056785,-1.2390527025266425,2.095843501809159,1.5944423917491968,40.50535964561759,0
-0.09805868167607347,-0.32072016208966153,0.6617026092311555,1.451001438131336,0.8794170411374032,-1.0773760769847582,58.36954720780367,0
1.3741315917178325,2.933081718557206,-2.2231604990271023,-0.035825578706462934,-0.531454551359215,-1.5678594253654559,59.964964350319434,0
-3.6801554890115056,-0.06456122209894065,1.281085870149547,0.12307820165618115,-0.1131280525157404,-1.2992163634458243,34.57109959085691,0
-4.379843409957107,2.3891844410274614,1.9167716396840848,0.0516609768510798,0.22907468820570256,1.0743180127155614,74.53292277309211,0
13.923121858419394,12.668825340503876,28.62385701508481,15.325356247953613,17.681470008577044,5.108419921777744,0.8157492561136592,1
-2.9782928357982565,0.18824853557855228,-1.438013335362808,-1.5630894981604142,1.3369204375647132,1.1825657270608714,69.93278901783182,0
-0.21470958142803287,1.9988380653558224,3.80658537545432,0.7540759331580894,0.4796797395099632,0.1989496964833095,79.84747087058349,0
1.2989947297184792,-0.7278387869792731,-0.5532717383228932,0.4508913752125149,-0.47386487015952894,-0.3657996727935024,72.95558788234582,0
-2.265327507119295,1.5183570054105218,1.5835928256069407,0.785812009296809,-0.8067463802094889,-1.692681615510937,40.484513871510046,0
1.1194009448228444,0.375077568827924,2.0087532695262644,-0.7005368280095384,0.7601183762563611,1.0544121122194114,78.28194876334001,0
0.7639329150481899,-1.6429390580593002,1.062193204569215,1.6224983409010136,0.022203934542636587,-1.4609249386516574,45.60948682845647,0
2.580522258092129,1.5282105926561895,-1.0027385433356368,-1.4180599219689365,-0.8332949582424903,-0.6382769656971474,69.16936099979192,0
22.951192268525915,15.065171564538389,16.11328961526095,12.869134324635102,7.740072355871696,11.692849497828071,6.90322846900729,1
0.2987269645423778,0.7282805921093227,0.014356933815883884,-2.0864776583710847,0.16048962397348007,2.212531039397242,35.99764708654849,0
0.7466971194227964,0.6247564209331434,2.385470330832829,-1.2578681559088878,0.7313802525749924,0.5904220612514635,77.2874851112965,0
2.0589149631967145,1.7446307600569007,-2.2860386241474573,0.8201581867554845,-0.06468860503251848,0.07287409801551539,32.681739576041544,0
2.38341499421413,-0.16743591969842403,-2.2390922567663374,-0.39352985596972884,0.1786947168104756,1.2292147842970504,39.45978961951774,0
4.970379833357783,0.5295506219559593,2.5507814759980296,-0.15171443357722914,0.5333592447054494,0.8394685045184047,35.27006886982311,0
2.436389423508512,2.11473661075645,1.7443940001459557,-0.3150867311941086,-0.5717460419560614,0.33260751032419755,50.388901720308134,0
2.130343931428773,2.9052334909723587,-1.8326418381468395,-0.8369207037962799,-0.14037505890533644,0.3076126681891964,68.77526483594997,0
0.8481337230369024,0.07889409648147898,-2.871819047737055,-1.3158158164275071,0.2810092502818063,-2.132595626154836,52.033244171214676,0
6.4861859391894665,4.615832501232221,-0.3628981384950335,-0.10633700253131496,0.9955815140020298,1.7031726099180378,50.75728269963729,0
-1.2440696111087628,1.1654751663477287,0.9937471810151942,1.0697714549838502,-1.1996975283653082,-2.3161438629688766,42.832360359304786,0
-4.036975728777276,0.29012749191876325,1.5863513764373547,-0.12205713212127726,-0.45784838618248924,-0.15936223214590656,40.21210531842144,0
-1.4293613539808636,1.042559810027629,0.6433570827530002,0.16805980596682024,-0.9951484818533795,-0.18150316213566714,55.61964103660533,0
2.8577154156271347,-2.9482642640842114,-1.1718553466355106,0.32910677871012955,1.2528426344274837,-0.4482246163001494,47.06222248788603,0
19.12880761555877,18.088066259668288,13.123169863608751,15.214031727739037,12.65881098133244,7.788316650530792,3.373306088457655,1
-2.1275792322040634,-1.5796948780985092,0.47077652109602497,-1.3257937713542476,-0.6590067582323337,-1.6644767353332222,48.84334401735943,0
16.076022329134673,19.4431607544919,13.543915259790502,11.278530703669906,11.940005166092911,8.128711268670935,5.446308711071358,1
1.1723316007855666,-0.8248276364329608,0.5143979407118547,-0.24066517453021302,0.007880184694728152,-0.3256110521485036,68.47212897107784,0
13.53606242254058,20.56807232115548,18.17356874376281,2.125983146247785,12.61990233688676,13.24319458236684,6.455343564105222,1
0.3268109480448076,-2.391247541710425,-0.4412855002315443,-0.7422480135662024,-0.503504161887299,-0.0946237926492889,43.69940497349859,0
-0.2683112841845285,0.8242183220405728,1.1146085875609735,-0.13414517626645758,0.40346891810791735,-0.5493598549354416,35.4341269687346,0
2.629559651193007,-1.1310225764352926,2.394372969244856,-1.4760670917717218,-0.38040725741084613,-0.3309781736136056,76.90320697840656,0
0.5579835894969479,1.7236336064376472,-2.498790406119056,-1.1079830420429075,-1.4019080677162379,1.3201841971984174,37.42533908218404,0
-0.8861897479121413,2.363522791322989,-0.5562384606224762,-0.3371881377911729,-0.7812967068230585,-1.0249923138187629,62.139753525315456,0
16.360290398663203,22.005404818940928,12.450235814818754,14.588245511361722,10.571237569770332,7.688997967383292,2.4080381607317323,1
-1.4479806634852181,-0.39078070235404794,-0.9038987438237553,-0.7893385057196743,-0.0070449854805546995,-0.21560957856802238,36.162372906627574,0
0.6390493415659109,3.30723453698457,0.27977446567825476,0.996118214911129,-1.3902219251534627,0.15776143929376948,38.311468102582936,0
-2.194736637942133,-2.953849855063803,-1.4787428149180726,1.1918993344135729,0.9500158286696456,0.24300472205439969,32.48029541747414,0
-3.0654011197798616,-0.3925613027758736,0.6034000178034711,0.1755362295785979,-1.8437935834807457,-0.8903178480198718,78.07753660687831,0
-4.392255642199893,-0.32424795095971687,0.2860975397579047,0.8496119885162131,0.6928575842374367,0.5825713188088052,47.09245209586291,0
26.345347629131656,13.287209971040618,26.07389395354926,8.711887382031767,15.301728436380314,4.372739962009847,1.8641980485397458,1
0.59416690298167,3.242453759452456,-1.3088037903370298,-0.930664217960387,-0.1165103783469821,1.6648018292404523,40.80157201965361,0
21.763411576430286,12.062672991307807,18.90756665753777,14.859894045168948,11.895736396845404,7.117495769636928,6.00251410099583,1
1.7750079348281187,1.5216933086229556,0.12017198923032722,0.3883120054234496,1.2495049007061587,-1.3327773974796497,33.422035462131305,0
-0.6988786544339118,-1.5451374975124814,0.7583062374522482,1.2302221756507876,-0.5969742867210739,-2.390304367469438,72.72736966010902,0
1.0752598058997593,0.8563724956211523,-0.5599866037489595,-1.2790307362197864,0.5152943216244674,-0.8342818100346248,56.76738840308283,0
-1.1612966051079021,-1.2227704947772564,-0.18588841322717656,-0.23950192202174977,1.1168337755299542,0.18641616974404632,63.346372372934034,0
0.09861666304044527,1.5376793519377936,-1.2164530148895185,0.3631156277445234,0.3111099911431952,-1.889649292096153,58.22082938898738,0
-0.7943906322919753,-2.204539480911711,0.695123227607104,0.08669769941439658,0.3556689485632294,0.19157739619408962,68.11060291570885,0
1.1362064102572922,-2.0993109978198823,2.725125705424904,1.6406145634882874,3.152056734512085,-1.123494033239598,46.7221263559052,0
1.1062983127584183,-1.0964005963335453,3.8468915896499065,-0.7746149700185819,-1.6891830379672617,-0.47126374070251964,57.90855919452204,0
18.09008436022223,20.36315172921703,11.165708183595868,12.370269095389322,-0.8175665264111007,7.480461790544759,0.7489584200198374,1
23.88772362384793,16.93710686005716,15.395681674245719,3.6769967307622338,9.755592344994536,7.791767992890394,5.776130806371337,1
-3.7036854631493172,1.5671793295972134,-1.3572861225882065,-0.31823752774262026,-0.7811563781311142,-0.2598001407675125,68.32979723560258,0
3.1970762241926827,1.6042569172362386,1.7244470237739542,-1.4162270557926455,-1.1511537365528692,-2.839078659485427,67.88882801875789,0
22.662174354773335,15.924498555183153,21.503503060602917,21.258617777890212,9.582628828052432,11.573228200021294,6.032130620995043,1
0.470635922878199,-1.0802061871975694,0.2483131819426061,0.709784290583688,0.22080850788809125,-1.010222402111855,68.31736065523262,0
0.6578657878481966,1.6806382551696968,0.5005906203660848,0.8091160682419203,-0.3961460899373217,-0.7675116467674356,40.08974741262284,0
1.5273954316960938,2.254748020891112,-1.8285626215932838,-0.575944811423728,-0.16322642823090652,1.6198246049826486,41.28947760753145,0
-0.18596558317900255,-0.4917575115008683,-2.3465391120078603,-0.10479191689472767,-0.29003743960637235,-0.3616325236171589,68.45305665798621,0
-0.7274062322010307,0.09934211260052908,-0.11752942455345836,-0.505016850367336,0.07950473236769778,0.06535059609776332,34.33532837978201,0
-0.41224901450528234,1.5206437506997152,-0.3596332627600806,0.16178191260125813,0.16703700072635513,0.41739513073391704,48.17019659997135,0
-1.8226706061841929,-2.4374306573497515,2.035372825472718,0.7702504479710663,0.6493646843375265,0.8112035278626736,33.18972781267989,0
-1.960814819596076,-2.1786999931709987,2.424317377100662,-0.49314485575414874,1.0548590692108868,-0.18688583038065085,39.03287706556516,0
17.273743528725056,16.397202087369074,11.64289611437432,9.606428068995047,5.3668560145359825,3.2736916009302384,0.5739184368827355,1
1.9155832289458112,0.41520670280125155,0.6153533068022277,-1.0955193888455623,-0.8807540896027302,1.798725018351312,65.0548793682135,0
-0.486122397761733,0.004575872287008099,2.1407303204598596,1.2718924219386565,-0.1108125602790875,-0.3882430535215389,78.95159203958337,0
1.782607373739511,0.008459717988303153,1.2377725960463073,1.638359732270941,0.38130961226478466,0.3116528560047783,52.84440358686334,0
0.7767514584603367,-0.18964846256174447,-1.029565349829484,0.24353020418634463,-0.06040372919690829,1.1277802506338985,33.43769532112437,0
1.980332477918578,-0.43426214989240497,1.0530733673446142,-0.47741070619280046,-0.6498268854974364,0.08416823018569615,78.59226506627422,0
-0.5372915066194851,-3.6727195675407946,-0.8655477671767773,0.7938184671438157,-0.29737607924310644,-0.24638340251454802,44.89296991951056,0
-3.0856064364857994,-0.3212622390509887,-0.968347902497474,-0.966246319753254,-0.17537845589869072,0.49150564724678364,79.40620379773176,0
15.606207142391558,19.797378987735627,29.745378933503787,7.135826254896639,8.33349877753815,9.747507947555007,7.8350150258790885,1
-0.3198320456708806,1.8730082334609761,-3.4162387892162593,2.6376948879639013,0.8932446283671284,-0.25544021415520907,74.69667553349953,0
9.76568070853577,21.022961723512523,14.620930144833403,3.713687685283289,6.824853903924121,10.59742480586314,1.5452082999051897,1
0.9881278379510393,-5.709253325808782,-1.7137037302555986,-1.1260539609110503,-0.2563406783724922,-0.5380477584901385,78.3279219690272,0
1.5956875597915332,-3.718673543320115,0.090982952661504,0.5583364232117055,1.8566474365619547,-0.4817659710934752,66.65801890683997,0
27.344089202719267,20.09852804178633,19.382907527955243,10.0342243232974,3.716474171496351,15.422291742841391,7.721520276158381,1
-0.7926327331368325,-2.2618005849885265,-1.7023262804994117,-1.9102119287864698,-0.08481967465974273,1.5101106799304107,69.70072251329813,0
2.1464988018519966,-1.0936161791452563,-1.519013322812897,-0.7211845568514555,-1.7170619484420488,0.03233023279557462,30.454351747560818,0
-5.808928793154174,1.182831018572772,0.14376187143774966,0.47143986649484004,1.0570162829481353,0.19879458833885358,59.1552878639949,0
-1.5142536936321003,-0.4754220842917578,-4.522582053500273,-0.902190440472166,-0.3809964059333908,0.5462736095576659,78.3367113767554,0
-1.500722057083622,-2.492528027868861,-3.775063806016252,-0.5964175185933182,1.9508518023679295,0.2711070348970328,43.673725768748994,0
-3.146899520204437,-2.442154928176135,-0.1942622183152745,-1.9941288434792566,-1.0065904164097708,-0.5863606859712936,45.473477454430046,0
-2.641850612126602,-4.247366034649659,0.5793073964195158,0.04587144488456494,0.7790298676301294,-1.1104257492524425,65.7992346770862,0
17.304748401064007,24.025478267250143,15.78788505378215,8.635301677319957,7.733956019074112,5.519266245251179,6.202348489611205,1
11.46315108884518,10.010639327525812,14.849875102330529,12.927822010039383,9.212312768012442,8.141675687537527,2.6679454943383085,1
9.39412087355138,13.419292417093283,23.233374136404688,13.04085398532047,13.748267500408126,7.643639109874395,2.9391676050493376,1
3.398871966017419,-0.8035900538832673,1.3627246531506108,-1.1536922813398585,0.7547332980678092,0.1994239859867671,37.818107082243756,0
-3.322166831134345,1.0065041294990096,-4.126806304958909,-0.3173504922425348,0.9411818664199697,0.19189773587303607,58.465249220610104,0
-1.307796776651153,0.05462675970287734,-0.0947414050888719,-1.5821767633461272,-0.9403989164843533,-0.5607609069798603,55.206642095921914,0
-0.49814368930608144,-3.3457878026231485,0.8084257305546642,0.7158727446909595,0.2270344788648889,-0.3240681752089702,70.39786640545094,0
14.637572019968319,19.116354179601306,9.288891536823623,7.815832804733115,5.631515198605731,10.541353391569164,6.916434019733182,1
-1.0007721802408682,0.8770035391314754,0.15755545573266683,1.0539209114064536,-0.9695035058459894,-0.08070565221712739,62.47780033784809,0
0.8511885069255927,2.216085716766468,-0.812484897739056,-0.616830877122271,0.5759044369323361,-0.14943148601108933,60.518802989084605,0
-1.2467013605805235,0.6767680536222836,-1.8053993284450667,0.9469284683570564,-1.3971523065481517,1.222065274196185,79.88361316323295,0
0.6417530223691543,-0.32912193924534816,1.526668301867753,0.511326644162355,1.3303816856580606,1.321061738353467,36.41749633073474,0
-1.0830180008924823,-0.14329377162329673,2.1634433887901876,-0.45638646133747546,-0.37294052043013654,1.8483506292674268,32.75507675794155,0
1.5532920567882949,-0.11226856591916959,-2.7791983268671308,1.0409140828073737,-0.7470393206992747,0.043585598389575965,78.62841178248684,0
16.39007816770374,18.544018548527042,23.00683228145431,11.058338144116444,9.495472958704621,13.869244932152862,4.593036882130738,1
11.215322151502123,19.115765273738486,20.75942985911077,12.720920833670517,2.2529891899901404,6.954578920764238,5.4647636102537644,1
0.40090300868063417,-0.6383398292051887,-2.547434801450899,0.3350212958021024,-0.4917378487907272,-0.48553403863949773,32.8501193775967,0
21.735364219232764,24.992955023130527,25.78688408701788,12.081518903540475,5.7704085690244105,12.519923361390138,3.524810469433511,1
1.7001586648351066,0.8353615044788013,0.2148887486817851,0.3873714806329899,0.3231854824582059,1.2838168598535613,60.91425105068599,0
12.027385301169826,19.429016433973665,13.774230207869206,12.213555932297707,9.864299096288365,3.6209761673466705,9.14834949996878,1
-0.921664679593526,-0.7468593900323613,0.007761233360814121,1.6221749188698538,-1.236520336346672,0.6755099976797855,37.83802143258197,0
2.933746580309373,1.0785609017613527,-1.0154666064595133,-1.85941332594626,0.22914683449911255,-0.04474558475598321,44.612447836969395,0
1.7370197342390095,-3.91138981464199,0.6285655101460724,-0.1874369753108615,0.4971548283534393,-0.29430500986020125,35.173753182329236,0
24.79291434808914,16.229106222321494,12.282202701172498,12.16658275140237,15.386573725737925,4.955152592590763,5.372756736680381,1
2.3602563474830554,2.288586137119878,-2.775737100911604,0.7638603516334226,-0.05310680169691065,-0.5509818035382495,74.54869423453519,0
1.0016631820084232,-1.75694760268412,1.4849178271852406,-0.6375875420759639,0.21668311896428621,-0.3033500674771342,75.50980620723482,0
20.052750426638084,16.8446526127116,24.96590628967453,13.35739645692641,13.49129740402254,6.1353731065183315,0.2812150627792376,1
2.899707039546699,-2.8522447375223523,0.556597958255663,-0.3049222123573273,0.6992305807201401,-1.2166592125268512,50.259857128766484,0
-0.4885618795530681,0.8685921519907202,-1.37267369386965,-0.8434015484570375,0.22223563663052404,0.07775991999108028,75.7907174095372,0
-0.7889453868560428,0.639185299590009,-1.0132056165516297,-0.849329485829408,-0.28475862849001854,-0.4987651871936316,70.79778947076034,0
-0.5082069080711084,-1.3258133445597298,0.05615754809598119,0.10422793912840751,-1.1868812295940714,-0.29840627192384356,79.30883986418473,0
-0.6773686481971942,-0.3442885474169468,1.451056746075971,0.1366718711628826,1.2279373473853306,-0.01166035588881546,52.294330992990396,0
-1.5391247623302484,1.0946053495539476,2.728163874930035,-1.3788033045852264,-0.19699064821431514,-0.6107819450858708,56.739973314059625,0
2.690762495255442,-0.21680958574956644,2.7495681979404583,-0.31510033601868576,0.9264818751052164,0.22866302813671915,50.547127617505495,0
16.671890891097313,23.182577917522174,15.181586688341776,11.661090316453096,5.315135306490921,19.095764154708803,5.180153489085198,1
-0.033220684651817975,-0.21163751499539576,-0.9072727751833656,1.7262265456356325,-0.8873294588557712,0.7717961772356612,70.65710022408626,0
-1.3343781695550108,-1.465937798247518,2.192139814954797,0.4253213083301104,-1.5449373466767586,-0.5393050144632704,73.35058034553002,0
-1.3584613063859101,-5.828511979633882,1.0464463714740664,-1.2203206899439758,-2.0173387981224113,-2.832325924984141,58.29258937053359,0
16.756920731166613,21.133068186315356,18.227819405709493,12.493628553119663,12.813760532555577,18.619714709532566,1.293806169667009,1
-1.5992596483340777,-0.4954276850059076,-1.8208814211336455,2.1071185232060228,-0.6913846151782217,0.6875643519941369,38.22830292146675,0
11.709876523856073,21.6580055107922,22.65634797997787,12.927639624689467,14.13022724941439,16.25560057959813,8.924690939520117,1
-0.4626018858593989,-1.1528391526696877,2.942069381634208,-0.6994952201676432,-1.0370660735699961,0.66536893503283,41.94988401057756,0
20.550787344575916,24.362850814642847,18.631570997416002,8.123476583158364,6.028535995657818,4.219178942351098,7.697314182968801,1
-0.7968723186975581,2.486624449690339,-0.24610318197979886,0.5882454459516296,-0.09230539380077397,1.5563073884802743,74.8766163261042,0
18.632064147168087,12.111944960941134,27.365522123123903,13.9122874691884,10.150505295380077,8.90599607280014,9.322668839209722,1
2.0143144011933383,1.0359895527829037,0.05240950554807132,-0.30356432526591504,-0.0809173376626882,-3.1704257358780557,33.6106592667594,0
3.185339996565768,0.03868814162350858,-2.3779268390699237,-0.0498801541281177,-1.0461210850625042,0.4734074157124664,73.61972816774075,0
-1.5817635833891308,0.0680161924562936,-2.7300435908532705,0.7014947819247145,0.518871180440122,0.49580502102757085,78.94736779273309,0
3.2086782166171925,-0.5701885140840279,0.277290367420169,-1.0861262991814098,-0.8682609615983323,0.09781329309330739,50.89920427534568,0
11.65000701303062,21.34420065273109,21.359723039072488,11.536808288023586,6.022285912800831,10.998192758392308,4.27541855359712,1
0.9936250142718427,-1.681962797973096,-0.8084911983944575,0.2654626594957273,1.3606760361077053,0.02655335379946882,76.80815207754983,0
0.1007437933459936,1.271060399665796,2.157067092125894,-0.3277371502679994,-3.2750106339134555,-0.8179270935854663,54.51562447049142,0
-0.6782605418557981,2.3335699864064154,-0.2026498324597916,-2.092533205749156,-1.5053020610083434,0.4186480208169058,69.69775423577954,0
-1.4665373676083535,-0.6190015240075891,-1.7690061461200397,-0.5205941776804528,-1.8919039012536238,-0.3856846640505317,31.757962513559708,0
25.912774846562662,16.712242144273482,21.311250928478692,6.27877720858222,9.772238165100829,8.654646585461949,7.758650652027868,1
1.5129767086321968,-3.8281201411749346,1.318902482227223,-0.803948414727481,0.30734561670797006,-0.24775241823970925,47.62646206502586,0
1.2552125951236621,-0.559014926593067,-0.31661095601932754,-0.18385389315920966,-0.8456731044941129,-0.014098965906671578,39.79900923508809,0
-0.125296444243643,0.4824804968134586,0.16901029138572515,0.7979945496122363,0.9235086160473687,-1.0506233218278012,62.94509032874286,0
1.737545001181542,-2.372672854219709,1.17571177627547,0.6197387847028687,-1.911316891662504,0.09297924652940966,37.5632142231338,0
2.701704661398011,-1.3073582812748379,-1.6127538582360996,0.07569494000509344,0.6855897462984164,-0.1416485860101269,61.87012406046108,0
-4.356422639462861,-1.0589339270140166,-1.123684198703398,0.4793609534294223,-2.624817056374112,2.549009708717722,61.25457763432643,0
2.3631354328382925,4.68730810562525,1.7414932891768065,0.94881309647162,0.13069002446438233,-0.14152575336694828,37.7393017423056,0
18.73467649193344,15.389342149900038,33.38430185090252,15.440463600721252,5.021829999661109,10.931472349707594,1.9769030311448754,1
20.225521274163533,14.005396720406175,24.030592173871415,12.436700933760964,10.686038192779373,11.563762393123678,1.5585153655144346,1
1.2649084332846017,-0.9483563502079297,-1.5435439147857501,1.6095206657759729,0.22749587573205374,0.635967750711738,34.52094888958304,0
-1.6441520236558549,-2.4385689330443876,-1.1388995489842209,-0.12402138738999703,-1.0642200068173489,-0.009844808650383004,50.048516334417585,0
1.3418224965537502,1.2075810405557883,-0.7837535307737328,-1.017764309076953,-1.027403551526011,-0.3732682459413141,69.92267525255953,0
-0.9930634709639381,-2.3069848519695677,0.5356872757326666,-0.8235349706258495,-0.5182526388612024,1.3252760904370375,58.92819661396772,0
-2.5438380022254456,0.4227931349413178,2.125314581575053,-0.3756336657655356,1.3511140899867151,1.292745289518207,73.34107428442445,0
11.547192890268906,17.283705423179036,23.48273559115127,1.2349845953388758,16.13792840717806,14.489496874812637,8.3629131310246,1
-0.734635293337036,-0.5507799176361476,-0.36773859963324124,0.18823327270113394,0.38916981022344826,0.0007086276805219297,34.86883645540021,0
-2.785297515566507,2.5667583300933026,4.411059136530828,1.199336780928251,-1.2590656259307462,0.7870165696408917,48.22832137599322,0
0.9778544792780577,-0.9126060650452391,3.0578579896274802,0.3653709222153139,-0.9171554913710485,0.6698080980093383,58.440636821693644,0
0.9588833834865366,-0.13950685845759572,-2.268560906292467,-0.1517337584205077,0.5230396329635579,-0.12802686798323787,45.986042466992714,0
-0.6531816549016547,1.662239995987809,0.4437050336060897,-0.4117215811555918,1.0338053760086243,-0.6887357179505279,52.13274241302166,0
-1.1079370971548945,2.6174333578445648,-4.144585372344878,-0.9519201402292174,0.4390685558901699,-2.2448667738927277,70.43997222505755,0
4.086051603697978,0.5804931313340648,-1.8529340364822342,-0.9601287386482825,0.14490796933090405,0.2809633211650989,58.85933381116544,0
0.16821297577698122,-0.6704145065188374,6.02942341860442,0.6265947999958954,-0.668751713577545,-0.2246229235914776,39.66696168060261,0
17.138349216377172,11.199726727911994,13.09448143025132,6.6787978720631695,15.377272831948831,15.173037107720603,8.245170697999292,1
-1.4684666439420757,-0.28305927467569486,3.196643615282066,0.7335478135058658,0.008783654898147817,-0.2376833169609843,31.876432876590155,0
-4.209499011438029,4.084355821069462,0.3106499983988029,0.3981472651225371,-0.05790774987690872,-0.735116800724588,42.01225092321519,0
4.554172996106609,-2.469023996844792,-2.063932567694359,-0.4402592043864004,1.2880757248523775,0.014508999262654136,63.200611403380115,0
1.4620012535709628,1.0768699144329048,1.4314684823416808,2.394361900582451,2.185094895036112,-0.6867153430032953,57.86259166592053,0
0.9981916322754988,-3.384541663286657,-0.34077153077639194,-0.8128235903365649,0.8280588148933092,1.071080500402805,79.53213685860895,0
-4.148972702032623,-0.0440697280085409,2.2437230095885043,-0.18667896231344497,0.7290636450023644,0.35116546762708406,40.17555541659432,0
-2.433161608271419,-2.243060294850055,1.4187050289106344,0.019458255518883118,-0.13851224460722475,-0.42389004232235256,72.82859943416679,0
-0.6704881637360535,-2.6821294266031375,1.4873035510803465,-0.20487666386471723,0.03139586553277644,1.6075783063995104,79.41852833607855,0
-2.3578469825966506,-0.4393389047019203,1.2190520904172024,-1.5553737338412423,0.20084509311570958,0.1007910726448063,74.08176745877054,0
22.78147501045673,29.62336652926409,17.914969627580845,12.020084353095069,10.338073903261309,7.145661320371296,8.410961706161014,1
1.253909496512265,-0.5541062005581825,0.9041280203032296,-1.2092145304831798,-0.4997204994197924,-0.10266860856592804,47.364423715284886,0
0.6262235371477832,0.2596638325760647,1.6127308493154175,-0.600511018185164,0.057602226005241515,-0.6718674108838283,33.52750318549473,0
1.4122570982186526,2.381492232050495,0.9666496545056054,1.0611942762765827,0.03249986288786191,0.8055938349951759,35.85322064909313,0
0.4934427773972127,-1.990593387581019,4.678257903137821,-0.33408815877533443,0.6450378554489973,-0.012413219525594604,49.18045201775792,0
14.748421600689536,21.051868498626426,17.74768476298581,6.68196976447193,12.35400314504478,12.667489380303165,9.15138820404896,1
0.8720115504451595,1.6876790192834745,0.785268231301936,0.45358552350921844,-1.5822231667464777,0.05022769916568044,72.26649878443634,0
-1.3847015484675884,-1.31807854977729,-1.1482013505671966,0.5364138998913434,1.0338810549242086,-0.4074601072916016,57.731024560557245,0
-0.24857155432487257,-0.42276845963593795,1.4932227292043143,0.3255778167870701,2.2758254276476375,-0.8522246429973241,39.424992639778054,0
-1.7385739739772876,-0.021734274069944288,0.27470495881407203,2.9181735550600925,-0.18414581568320207,-1.1301787294846835,46.70523260432816,0
-0.18391356520853172,0.03205056459032085,1.5892007658904228,0.9736222494278469,-0.5035696189077175,-0.150614014629933,67.74662698925252,0
-1.5322416612213419,-2.256125109615388,0.6197895587612691,-1.2735855485965992,-0.41462690057186313,-0.9951739598992374,64.85065069671315,0
-2.6031759656066624,-3.706036965795138,-0.2497737707001348,0.01569779595775838,0.21865930675729772,-0.4463205152343449,76.00190820545262,0
20.780110484211455,15.043576055990528,8.767134760977914,8.285381892333866,14.117762223708162,8.652419492859446,7.489990174049569,1
-1.1718119213623517,-0.6975289293992835,0.5278062344375171,-0.15554946862932667,1.0001293357539818,2.4372425759242193,59.81967998462308,0
13.778357756052479,21.21186295820784,18.153737915437492,0.6822333955096962,7.702470198148242,11.339352780098487,4.063664052774615,1
5.8713158046555565,-2.146656064445791,-0.8576958512121468,0.4158368362860605,0.6002129657442777,0.957932055215684,57.79354070994796,0
-2.112061599933335,-0.513890250243563,0.6156647450277699,2.068226041505824,-1.397805478424297,1.2025765052252275,75.3433288669918,0
-0.20398943327186397,-1.6848652602526528,1.501745558802664,0.6544310271056212,0.9720569657397219,-0.01330463537863531,43.38342185971488,0
1.6387465362788127,0.8477789648879721,-1.9315652657279185,-0.5385736732966242,-0.46675881195144053,-1.4829844319824181,42.55960023022336,0
-0.8249580237758734,-1.4773949966591255,-3.2540098417334975,2.0225902305694814,1.2525407310292307,-0.7790194215199856,74.6754985696659,0
2.3821717095469537,-1.6372100533201572,2.184213567964852,-0.5479053042069351,-1.3358624041686133,0.7241365593144973,57.76479126640906,0
14.794593667308224,21.295271719567097,23.13447309128957,12.398310164981423,16.47515055864347,11.663306517821372,6.618603122150056,1
2.241696887295617,-1.0485654858197575,1.1966603476157083,-1.7249168959418097,-0.686936417944251,1.3926548882840513,45.138380380871254,0
10.497661436084911,16.26645233561999,22.869231286299097,7.01260696403166,17.629191345706214,4.2556339498597735,0.89652231235679,1
-1.3133786912548264,-0.5206180825428751,-3.0200824239705044,-0.2205382291565374,-0.19370537980496205,0.5402879440356954,38.04922158436874,0
2.1683964880870854,0.4206060804439907,0.39678703435497337,-0.009182353385138937,-0.5177574472222197,0.2178023397487261,79.64160658409877,0
0.9511768718571648,-3.49379138269111,-1.0775216746921914,-0.2549469704035893,0.25617060569427813,1.193311005927126,79.96036494717204,0
-1.5434816291935647,-0.995923693635684,-1.0250682212931002,-0.8015275901045416,-0.34718649511226246,0.7708022199879712,35.64202722584422,0
16.62598847623656,6.993782632745408,8.005555465693751,10.136118345386723,12.455083423159635,11.501823430509011,9.38719301977863,1
0.8159138195012959,0.7100512358698577,2.5499547640416367,0.19774913553806917,-0.8291091806340453,-1.6047549879109688,45.845650690927215,0
-1.2569714126215112,-0.5852612406604105,-1.3798319560578494,0.04177365736491215,-0.23610401091920777,-0.32768654132878194,53.21751249410708,0
17.44254606437444,25.20902664507954,16.192113442783032,7.981122359251536,9.371853237629482,17.413643191599313,5.203236261913857,1
22.211486635069512,18.115979892786875,24.755078762435,3.9498841388044976,4.677179474676295,1.288129071221249,5.990110442135675,1
2.1842059220386676,-2.9529272832436035,0.913004670335591,-0.25056036861869124,-0.6290567313584048,0.19674232376570605,75.45027944178514,0
0.12451971265866443,-1.6249303673640902,-1.7154777615740002,-1.573914211994401,0.3055643843570512,-1.2538048271000084,77.89896766244453,0
0.4161100636481084,-1.4462625960345166,1.8176248226999379,-0.40797147810125295,-1.334160759004991,-0.28372750445327777,39.55528113455725,0
13.101190261280129,16.018948288594483,2.6442450605048613,13.111889453866574,9.31701344200677,0.3750473959604115,8.962362491461331,1
21.43966486025714,14.935083643646553,17.71479416573529,14.735949772787556,11.367300855819867,9.759849833245742,2.005646595880699,1
-1.3952329012181128,-1.9081089082091753,-0.8303505623274237,-1.1262382070860628,0.215220732950218,0.7665513543377717,50.597327430613184,0
3.998479392667005,2.2799502290010194,-0.20311640734510336,-0.4822722102015164,1.3380271627819205,1.0075806827627332,61.90699512581347,0
-0.308747069447858,-1.7218230611867167,-3.9584117184813263,-0.2689161946978014,-0.01222758521992526,1.5873276541102175,45.501701200622506,0
0.7786847884394739,1.652498845345647,0.17191477603443092,-0.5871541590312039,-0.5321724562434457,0.38547307045695217,41.43353756923017,0
-5.238304410106679,-2.581045454582581,1.2393778432242246,-2.1308379973558758,1.1841810163672148,1.036157261138504,77.79900294130361,0
14.86887702181775,18.724746201027294,24.039970199301933,1.0173182469100173,16.325087806476617,8.373326232492321,8.279249545453125,1
16.86446996109537,17.291212229862307,18.677817082073545,12.914074574058144,12.550423248924835,11.035079220975687,3.4562016890078953,1
-0.8405372111818015,0.22144686837299302,0.8832572968378319,-0.41760596777187864,-0.6852505475370957,1.223931818468504,48.84053138871062,0
16.901774922331228,14.776620244182542,19.656096393692643,16.47276995775631,11.845699331834075,15.203766052126795,4.933415880523805,1
-2.1112789795971927,-0.7073715191340121,-2.4648624783280004,0.9524619705361694,1.689188933651679,1.669922781404639,52.28649104514346,0
17.136854328545827,21.193385699401503,17.68213230406939,4.196288435555103,10.302305490680151,14.195456567501449,9.29870482293879,1
-3.678803168373458,-6.241088045887594,0.41983106796698155,-0.2637350376313479,0.3982209514202937,-0.2521534658435748,75.54121101651981,0
15.610738019824126,12.386316873156602,27.878679340363213,5.665058520239335,10.02785689376775,6.788767860204971,1.8262513025310112,1
3.8005368486219293,2.0461131105044785,3.2870830182410584,0.3911278769327262,1.167509822986446,-0.7239647304677874,51.63835408540969,0
2.372290948084598,3.080647959639772,-1.10635449069454,-0.2539517063972351,-0.7538621136909615,0.3826535514774916,47.83615846544532,0
16.930624162226806,22.85158100894141,20.093799800637484,10.882334150949443,4.916193115630869,8.485681027147383,5.171179308569195,1
0.3675987459868593,-0.8287795839304654,1.7139924898325267,0.15121834399513978,0.09450765304739081,-1.0482511637190517,73.97313467559462,0
-1.553072689082742,-0.06510044617542832,-1.8728921032980193,-1.1838426410516691,-0.08485904498935258,0.17380116487733835,53.0434367634826,0
-0.10033853526776493,-2.5001470359418496,1.2244800298138279,0.3980947793532806,1.4883946776914283,1.1116221515087088,36.31417362922845,0
0.7028133376845659,-0.9401429991774007,0.4093368757801208,-0.11101346213176101,0.9533975332379796,0.8262314899624682,40.95295865299417,0
2.6667746004408492,1.16374791364641,-0.638980141145338,0.5428733481036709,0.07486130625002908,1.3186179262194737,53.090324078100934,0
3.1981090309573768,1.1263968069346244,3.545213336628416,-1.2218070931634644,1.0721967159384873,1.012224423453833,32.598304906559015,0
19.24685141363826,17.939282944306168,14.474089879872857,12.635255899535592,3.651864953896034,10.034352554032731,4.095609272625093,1
1.3878464663825163,1.4331786795193033,-3.46052546096869,1.3338857455005728,2.497415126419854,0.04600638673634095,57.99452659228927,0
-2.6379369966050215,0.040212933738196774,0.35924454526384686,1.3451476204524146,0.35973897512678843,-0.4986338957884514,76.62219891886754,0
-1.9023687407759122,-0.6836436404922711,-2.0138547218902882,0.04782531978468294,-0.5641961798604865,-1.4940377932897506,49.15822342795629,0
-2.536273609950625,-0.3365182689750831,0.1367431319353175,-1.7464667255790336,0.33164766712576277,-1.0471575686902646,58.287365327557296,0
-0.7997999802186331,-1.490335540634701,-0.2099354151272479,0.6127907415832897,-0.02549412858519966,-0.21715880713685662,32.30345848377338,0
-0.6864118536860754,-4.171584877810008,1.9474524617047355,0.2987977803217619,-0.7734558440334302,1.8987349813552388,70.97139268351825,0
0.1740329607847731,-2.0722871439503936,1.7134748429409168,0.3980482165092625,0.39457998548421935,-0.4257556046515905,72.66978667684708,0
15.760193307750125,11.925969320556783,6.95859611885874,9.077654405905548,10.543437696326627,9.789979725845392,6.415796812433943,1
-0.11211113188039422,-0.7651867657747563,-0.7582034966974945,0.7160457490404942,0.2128198468830529,-0.33394559630536247,60.300691596804064,0
-2.4914849004673405,1.0450201404210229,6.17977921537277,0.28020554105019435,0.11544263616427654,-0.055733939893613596,72.12320534177876,0
-2.4895337483383653,-0.052967256577657294,-4.538995728994819,-0.20931661662150006,-0.9026885938220728,0.33917757913548424,51.51582140211954,0
14.350652067687038,27.871983722400145,10.209636320732432,21.333982447577093,8.437453876994592,10.733786304872542,1.9378913002335485,1
1.395173940678398,-1.672183340439253,0.6160198044346819,-1.3028447635247453,0.452067838259671,-0.3559740843858328,77.10927272448193,0
-2.4650806224405604,-1.368983461225594,0.914648562173531,2.098221474546747,-0.13808233466148176,0.5911361179239325,64.69316711641973,0
33.49149717035629,16.709124309842828,20.550621806250376,7.402540721544476,11.180930300162412,9.04706529977753,7.044936364116847,1
19.460986474416703,21.362598491705103,14.094955282259079,11.03953293967719,6.216546768414701,11.039831974574764,0.7869767519539905,1
-4.870624663565777,1.368326417217909,-1.6295120056470962,0.17615045188769213,-1.2498203395893641,-0.2652375404702022,79.35500429620583,0
-2.2296443747048285,2.3938218975227046,-1.1937895694639427,-1.6744694604532453,-0.1090234199634638,0.03437530902646009,70.51295652586435,0
-0.47289767347171874,-0.23923924873754268,-2.206368762466187,0.820553502887897,0.18430906407810346,-0.42002772729416255,58.620386298388254,0
-2.4553599289121144,-1.1825560187394113,0.7166890221520065,-1.1965579286166865,-1.4935097782531435,-2.123947582700665,42.70736400639072,0
5.85454018494666,-1.9887101312617468,-1.8429020468578425,-0.5653929702854015,0.2431346551384891,-0.47020333878531134,39.81171408439278,0
-2.763183436927162,-3.596429478818215,-4.4471483358743935,-0.5180690194750568,-0.3009803123932219,-0.6314370274831833,63.18671803469692,0
14.822294505922217,19.04161254312796,19.801843579524306,6.357419651270041,15.084261304028134,6.079750792637544,5.5742474467014205,1
1.5679353024338918,-2.5362873032629967,0.19273848011999145,-1.015628254718246,-1.6516095967182838,-0.44719939306998346,60.200249886975,0
-2.781788262517542,-0.9646831504254735,-0.2857331706839598,-1.6891124539708449,0.7131723652486122,-0.22873502625875175,48.41477338278548,0
2.201327889843222,-0.7616260642914384,2.380704057912823,1.5721554799027153,1.0224482728559243,-0.5334317466174908,31.918193067785058,0
-4.995694239134561,0.6259926090696569,4.183152739557096,-0.0353900781738251,-1.989815518799147,-0.6748784964301175,36.912278281702854,0
9.738503558189283,12.799168473893554,23.44307350659676,10.837847878920787,8.405972328469945,11.944684965863496,6.687532544498137,1
2.50456732391328,0.3225990853253902,1.2882475357002174,0.08198881382471937,-1.7523770951409967,-0.8607291633953384,60.33446615989429,0
2.361979810611344,0.8065491260743435,-1.9334037814053195,-0.796064137720634,0.10291739052323721,-2.3140440660001054,58.01743371751617,0
18.005549723436467,10.277830758758778,20.464419859259348,13.334412819349394,7.595493789324612,14.663666081020892,4.046537416485502,1
-2.47332593337013,-0.8534127354615776,0.2686562005357502,-0.6483003273443845,0.7030651467411015,-0.5276851944169594,65.19683335172577,0
3.468866183574773,-1.9504818502005457,4.41683818230941,-0.5943498527396046,-1.3400568903608094,-0.2169149904265378,55.394870800169045,0
1.2059282068825232,1.5903737232830408,-1.5391869290046143,0.3260443763658592,0.0025023003171226327,1.8090667486444099,74.70497680530796,0
-0.2173754331733049,-0.7565530891548169,-2.329598794738245,0.14001448687561519,0.292951833518835,-1.2015881881405177,65.71937810186462,0
2.026891519767528,2.424736235803807,0.1885585872285587,-1.0363648841320956,-0.8306215805446449,1.762127663079091,66.53395057641951,0
0.9972096369744597,1.5074712743568968,1.8774472324763185,-1.2231388144094233,0.30695075011252615,-1.2369989013620626,75.20174932272796,0
-2.0506677810649054,1.1186746490553439,-2.9967379709316715,1.1433198239615687,-0.6644371821053475,-1.0271174242187837,38.94205342538997,0
18.689478879374533,27.78304981292858,21.95360509270203,11.22239250869138,13.62026619343819,9.46247572727975,7.506690142816549,1
8.172220542617474,15.064423646899263,9.830385204703564,8.300674609897445,12.009998784517162,6.437004545790946,5.145711162678005,1
-1.2319123870268378,-2.04746170749434,-1.4289921826061958,0.15334476760211485,0.5886354597962726,0.7283452130695429,67.66564659396286,0
-0.5577672749463395,4.106280367482415,-0.7095370423175283,0.10934057634090907,1.2958270717726919,0.5664250279877657,55.01791801921951,0
1.723929512172973,-2.686940559059116,1.5013855902579731,0.39015394001345316,1.183920483851373,-0.691931322338641,58.0677912094669,0
21.808360931475008,22.12977077810032,12.373675550961702,5.62587085416131,8.634760615160607,12.138174453824762,5.929847477554939,1
0.3699411501463125,0.905512704153389,3.4146596191184457,-0.7708188027286894,-1.2783526288023244,-0.8954279609250417,79.83416389673398,0
-2.67313700062984,2.673314715517966,3.0972785900480733,0.3202165779488289,1.221294945685148,0.13395838058023532,31.671326654661083,0
-0.620781982755131,-3.0956031126180625,0.5285095272146781,-0.040333910214043756,0.7453607240778758,0.0935234964386097,30.267449434711143,0
-0.32540740313818356,-1.7423860600152614,0.14430647364352264,0.738237230816162,-1.1433389910838607,0.08747375368073924,30.03947555466094,0
0.46608590305896785,-1.4361295672365286,-1.1757126098160005,0.23061084876621443,-1.133421018292623,0.34992371524939253,66.7976780257589,0
4.6756554907766,-1.7215136034036393,1.0684157247493493,-0.7267419048820193,1.0409541737977894,-1.265258409085215,37.91415253496868,0
14.190876641705756,19.051835567704433,25.651672821772056,6.887620856669143,14.68724057309538,15.992390533951138,2.8254086366244358,1
-1.6465921385154187,-0.5058335454386383,0.064508458121914,1.8166061635554727,-1.0038497270308853,0.8347497226433022,46.22191143175331,0
24.638077258026527,29.045919833443392,16.1847506815571,4.268203665531649,15.162192903071832,13.460626200481048,0.007168587065797816,1
-1.546059419205406,-1.7414555432874828,1.449183557446245,0.4484854541964401,-0.1585376924164567,-0.918019061638965,41.49591854308163,0
0.28685313371498644,1.7430487721758683,-2.5023982732673558,-1.5325182768296637,1.5794378916948595,-0.6117596395045849,52.581949775941894,0
-0.3239096338826549,0.8768253989932905,-1.7679977134928813,0.13249714349564554,-0.38148941482409277,-1.3204934434050315,40.31013579508894,0
-0.3140496568894156,-2.4203218868283156,3.1828007355256083,0.8767141863861161,0.9641558841719786,-0.305444702441682,58.41595755389628,0
23.41499969258434,12.618094062989709,14.631049471702617,13.83014865311907,-0.8504502552417517,9.402177227340045,4.105227843514278,1
-1.0208844135331019,-0.7542357473868958,-2.950822802188046,1.022512793696016,-1.2637690772205423,-1.3705590420670095,30.422574803123027,0
28.798696303304997,8.692577747222558,15.480803730561597,12.2426100783151,3.579131937216226,6.291799632298665,4.00155272865399,1
0.02444709683033893,-2.3933311845687917,-0.5311210250370825,1.3701018536103708,1.1992995729215856,-0.03227689410261781,65.30290573190155,0
1.0415122407174224,-0.6556129197530458,-2.852036234240904,0.39387321816474324,0.8293237725828624,-0.6316515245136439,32.207278104372776,0
14.220246466540399,19.802208381463863,16.917384012319133,6.243033837271973,15.33020587066051,13.71572805412886,1.7845067409837478,1
1.3179082695620727,-0.8926641575343698,0.7428080688460613,0.4953798153284869,0.39311465605803403,-0.4045549175583959,68.46252796207933,0
-2.450976958437653,-1.6801200710836122,0.05451126472115872,-1.056224040668033,-1.8034037342272606,1.0931229758819565,53.76795338404342,0
1.5178886395173414,0.5333995790041447,-0.7744987319579048,-1.0974395765349592,0.3438678131479371,-0.9883944384668729,66.44352547442979,0
0.30206581811027133,-1.2806375183588312,4.070018218669579,0.35820663387037477,-0.27870892421964716,0.26427057306180435,31.929578096906692,0
-1.5489232878486203,-0.7726089969558126,4.7838398642390345,-0.7673808064423085,-0.07777270026441621,-0.456104849749766,74.75500145331222,0
21.326357531450473,12.89468500896572,16.406918788863802,4.175551614084127,12.678490529521136,12.660089877775894,4.532617725258596,1
1.0111157064300154,0.8724714096021101,-2.3818330119474536,0.678728069279419,-0.9291363405097582,-1.1340201859349581,35.8402053866976,0
-0.44319938877007864,-2.8819632690498374,1.917632612935345,1.127686294516429,-1.9473424741408143,0.9784578056665502,67.82692917476533,0
-0.13689298533283129,0.05755112816199717,-0.3701952988424374,1.2121292042334861,-1.2395880125250283,0.6078403387350085,63.8536856329224,0
4.649397828646835,-1.0578935254493977,1.9146096451870624,-0.10609063534142033,1.2334060763526695,-0.007688995721369474,70.06760291351243,0
-0.98312387803786,-2.8254515178011124,-1.033693766347657,0.6190329465885325,1.3920387515870913,0.11112937529651211,47.67387375641894,0
-0.8865269296358058,-0.5771502343082023,-0.2291188549450393,0.08409438825019651,0.6909109573921928,-0.44480683817049027,47.32346435393336,0
-1.8517798077822998,-0.22733337816287078,-0.2873190597942363,-0.1650805650030461,0.03175945658145075,0.07567354061338613,70.06857677318183,0
7.61440073113063,16.823630450137806,28.729124625382443,3.820256311386398,2.0721420570451468,4.003275192169207,7.327234154133065,1
1.8159983123649146,1.0128415499940622,1.248575913297684,-1.4251777645007055,-1.80817792253016,1.182594359069889,54.30287709513405,0
28.493661770252125,11.072953040909354,18.146344919524132,11.725380399511053,8.974389777870815,4.651699568448647,5.847568083373047,1
-1.0303417981840355,-0.2530377939079006,0.8789053809159811,1.267960487103089,-0.02439856723615665,-1.4222296495062072,67.11551227668622,0
-3.883717318758812,-0.007608267341598767,-3.180283661360596,-0.6646510975020625,-0.9028089269627998,0.8092646982419858,38.58549944868441,0
1.7601319259146846,-2.8676116478568288,0.6602275809418873,-0.8140106692915557,-0.3656770825305199,0.504270748038384,68.91859522727455,0
-0.16450739934290634,0.6129017259266814,-0.8754746448086492,0.18198988262279764,0.4394860480085117,-0.09830984745437601,56.949043722506026,0
0.729122954710914,-1.3603469526959018,-2.5687740721450285,1.4758791505039655,0.491445510894402,-0.2290810309217097,46.046771915972016,0
2.605180793572463,0.2753238817360922,-1.1011741340014132,0.5096892312246561,-0.8143981874463238,1.5008430302803784,50.11473390381593,0
20.526685738236743,20.639196749577934,8.501648595705595,9.486946078064676,4.466636892113558,13.606914788561095,2.3600793032371206,1
-0.8793999018716175,-1.1908464057520847,0.06801850972215516,0.7357213110188878,0.9026602893824857,-0.3267973428992907,49.749513527451626,0
21.28600550648027,17.303656466662073,25.562653511512753,5.47374957381468,7.743540797553622,8.518269594358243,0.5853660008005013,1
-1.6994418429553926,-0.9659678521456815,1.0613662460200957,-0.663436157219488,0.03757485933586561,-0.31469082878809246,48.97306902967324,0
-3.659363630416166,1.2319340120936764,2.0743628112981005,-0.9104867035315213,-0.24402835217113436,0.29471925290230155,34.88093802675745,0
1.3864352033174083,-4.055354543341697,-1.7720804939567543,-0.33257937984987496,0.7031401972360493,2.498430483721495,40.14967795955986,0
22.986327838294365,23.909450212794468,17.66775512345272,8.567682215282725,14.909095288325052,5.15935798807646,2.161358123109207,1
1.5966961026982156,0.35114412343097623,-2.537383953686346,1.786597023926696,-0.4162102138395885,0.6034810103015367,79.0514744557538,0
20.950023805522356,30.70195548840717,18.34175221826565,16.80171718583637,2.5700848693463865,4.345940107211221,0.26446902597667465,1
-0.7372387315713992,1.6140928332133746,2.2393755571067624,0.28305316225865373,-0.33931118713815905,-0.041337204809170254,33.725523090932,0
15.41692900619946,12.883733883122078,19.400226713487022,-0.6982685126165631,2.996097702379088,9.290032464902866,0.29170668574074465,1
13.10080613729254,21.270640010855463,14.423895241003061,9.61348185521331,9.440804323957002,10.486316002157528,9.030975070493097,1
-0.2162779807828335,2.224201238442677,1.3705801694219357,1.402009325919122,-0.3028852437989931,1.3460997945142577,69.2904242122175,0
-0.04371349488424736,1.4144627476085534,2.950224728619711,-0.1934276285812056,0.21838898754417418,1.2888634252063023,38.98989067475377,0
4.28601410916982,-0.9395289286742736,0.31751210187508566,1.156006669451127,-0.6084939037312018,-1.0078679132221302,44.096477587578036,0
-0.5758121537358405,0.4900773286308118,-0.5399037936503283,-1.543450943185747,1.5941779562040121,0.10353815394917538,52.36662133330939,0
-1.7600239633815278,0.5383618405103198,-0.43157425265643923,-1.177761457991358,1.4697842587874956,-0.622270222893996,59.036856989867594,0
-1.0085960316252465,-1.2156477852312486,-3.530775174059948,1.7409414865969908,-1.2894805872096875,0.05844948070564989,63.14531261722829,0
-0.1193086239843832,-3.4033317165748325,-1.6194496715345679,0.18780033804252202,-0.7871740699869963,0.20335945999876773,77.9617717661911,0
1.3634868176302835,1.9250057716002034,-2.452358715625367,2.196646054978954,0.7674793445541306,-0.0017141536690639572,59.166645499425876,0
-2.877440202113739,-0.4505252849827072,-4.756863319746657,0.19265153264802468,0.36539424192514075,-0.03916211544275943,47.51361853346638,0
16.033088511276716,14.187910246985428,14.198181793919346,8.42555367186796,11.529733262770142,4.751347195217929,0.6404352386478851,1
-0.62882956673355,-3.191134492444455,0.06876364451587022,-0.11676399778157646,-1.579627452555176,-0.5913014466965381,40.34185553083042,0
-2.484358139456987,-0.6497672439834774,1.245864539623928,1.8103275907226957,0.6589353548536838,1.0848277401561082,35.75054684140489,0
1.303422153193825,-0.17121609785624198,0.7540676756560261,-0.9460298263509611,0.46644580083980597,-0.12050819676589646,46.49874476451382,0
15.76391092635572,9.354504112839747,18.532674835268903,9.624501780106563,8.00154562710907,10.98723727272341,6.500924511399314,1
16.42366833041872,19.340252137948767,21.57587195064029,9.795525227938489,10.06449915160189,10.573225220000015,1.7014274017715791,1
24.560422080536128,22.680512175984756,12.40969786009086,14.654103438505306,9.67748476620076,13.198446504224975,8.461938661543734,1
-4.439555894903702,-2.7993630094653725,-0.49873925034496247,-1.1630426502846019,-0.41342377063644137,0.03239621368357873,52.20565025877032,0
2.1450835991455177,2.857520324073541,2.868619338704152,0.28475459338556824,-1.9632891478389742,0.4608248654038653,36.812528254598895,0
2.096799775627082,-0.16213421087083427,3.489167740150497,0.8598335614674577,0.5682733771527843,1.086380711205838,49.902742033946886,0
-0.9982779029407313,2.394336054495707,-1.615182680196592,-0.22347250523693915,-1.0448363139030712,1.783922595201769,50.28096951277212,0
0.294596000778168,-1.3609880955280953,1.2298892780627562,0.509683077242329,0.8117055716132655,0.3319184477078873,54.26403585550992,0
13.2269094902497,20.591094752227058,15.46905469457332,9.28194170051008,13.57693109800374,6.934709900874295,8.850153245472587,1
-0.39429476191682566,-3.012177690120351,2.1411589351565556,-0.08504433903802336,0.07964268989389676,1.6004950658110577,63.53736002358867,0
-0.004611574741650924,-0.02329109766830609,0.4802289954437244,0.4069067258566319,1.7114017557841346,2.473266082762811,47.38850488022189,0
-1.9034889465834401,3.622993763743534,1.437305256511493,0.426046487244996,-0.16683791140476076,-1.1890220592259844,50.40100456425405,0
1.4586236330765572,-2.6014035395082873,-0.43069736965655286,0.9929571304529641,-0.24969417246679382,-0.3684498753660277,77.51898757410466,0
0.021272536697362305,-2.6720057848698557,-3.0482938140920304,0.7142364826939283,-0.4222099256177997,0.7064847605814564,64.33778601409544,0
-3.242016569152678,-1.395658576507796,1.075170614087611,0.553001671903652,2.2494375841962904,-0.9076135332330816,60.21297579934626,0
-3.28047173332694,-1.0956304734531899,0.5250560246466499,-1.7043667082962657,-2.0739060049716462,-1.7612425786366435,34.55686695448536,0
-1.2399113946272362,-1.1712436703314557,-2.8482448233158757,-0.4564031828401075,-1.8203980480718356,1.1876411393589066,52.44558612963951,0
-0.9382593186481766,-0.8080228612695957,-0.34896901323405016,1.0015304243744003,-0.46621078219393086,-0.08825146273128724,54.898815129369666,0
13.6806701680215,15.884696994871103,19.466717709636146,17.303988846964188,8.06018229280695,11.846072185512453,6.06216642220766,1
1.8561812219821623,-3.540962275552156,-1.1562269174312867,-0.258008536197609,-0.6362237126519298,-0.5650604735511925,51.40096762198219,0
4.882443444943828,0.8742535594621037,0.18411027462398397,0.4762403533876659,2.5299277492519523,-0.993593003931448,76.39503149310136,0
-2.2408358378727784,-1.509732393143842,0.06428629392912179,-1.7257711248125733,0.02233923931860801,1.693547133413672,33.38981979140563,0
-1.2363208973672548,1.797023409103129,-1.6516655464760952,1.846395920599248,1.9333597477143571,0.25675079866178757,74.16748505110519,0
11.263730412093254,13.506000948780812,20.755085301131498,7.066071733286883,8.796696175870805,3.490753088210738,3.8585944683610904,1
-0.09499489090972614,0.42049244000458613,3.383669675049167,1.545237712763686,-1.6007371559445422,-1.9080479405695796,32.69662914204356,0
-2.384052683966371,0.032241794921308985,0.46139463666886915,-0.8389684396441776,-0.624084745037494,-0.7620415273876496,38.678607207571986,0
-0.8229824824425609,1.0828881987794745,-2.1558117223031736,-0.640684993497601,-0.3992821430855018,-0.006752405155139963,63.56840044483979,0
1.1442514352167805,1.1918626940783328,-0.533226026559074,-0.9798657956974325,-0.5282140148497824,-0.7103324902148916,43.16230874152722,0
1.1850674391744884,-0.23447917887205041,1.4666964653780763,-0.7239081891542735,-0.9013697148422457,-0.4066687190384437,72.894459262312,0
1.5936096661141308,3.810046167070837,-0.9909842890357926,-3.3475505964875936,-0.4094225730308178,0.23065792520835698,63.40903309789526,0
-0.9925550661793983,3.428328714831114,-2.0674716011244527,-0.27464484856183796,-1.0799098408608079,0.019576762090171933,53.83102281552702,0
-0.26959970418695833,-3.391924016754518,-0.5739843715819977,1.1504870500333517,-0.2502361656570745,-0.31779021391231094,50.09759623076098,0
23.049777483535404,11.341909418942821,12.90531664803676,3.579394279280031,6.696798999648744,4.993573372110748,4.107004005865431,1
0.18905513517693673,3.6121782356739227,5.333810444640018,0.09715578708624777,1.1166812750675223,0.2320946379285372,42.09638640596183,0
0.39015385084520426,1.074957409212857,-1.1569194577526627,-0.07749429989298792,-0.05843011899748824,0.8264033173305246,31.449837216797402,0
-2.132064343255361,-0.1030844172153031,3.824010938105395,1.1640601525859375,1.3491790488887052,0.02443184017803416,73.05044106540068,0
10.988153582880877,28.455471363662383,17.887819740097132,9.768197832949129,12.352306700671328,13.849380677066279,7.248708535798805,1
-2.142616655341949,2.2456509877705506,-0.5671622442830719,-0.4989511237259181,-0.2793532754133253,-0.0035057267586741823,37.00224060671145,0
-1.5025111873893473,0.27788561940803136,-0.3209271036340891,0.5273096933995635,0.05236289720326249,0.07701399598375847,67.77186362577905,0
29.219606377515248,4.370155749502622,16.93051755677841,15.009982916599999,13.921051810886734,20.262606299342522,0.38202783757391057,1
2.274762195257828,0.7989387452043701,0.6209455083615029,-1.127263792554147,-1.1569413972294713,0.3225046602899047,36.1731786865368,0
-2.728211987636717,-1.0637555005786572,1.001834658171715,-0.9823242722767759,1.6053559623618066,1.22393634423789,34.40030137557261,0
-3.1428399966766007,-1.8647424863639743,-4.5715544889899,-0.7825913625481332,0.7663884765723994,-0.4138949422748569,69.07615647665335,0
0.9215944872319349,-3.0446686365634883,1.5959505091638106,-0.5551092279283498,0.012169682282905197,-0.09287450139305273,46.9601715635959,0
27.76553599136287,21.434783160493385,25.68030590854764,12.390150823578914,7.154787092202083,10.468496864599405,1.1644552408471143,1
-3.1065665050539595,1.331897675668131,-0.2640077057085445,-0.7882191047163172,-1.9286814348628423,0.6117870490026632,66.02168511128889,0
2.3529808752700636,-1.5434193741167404,2.581411030624261,1.3963475039118443,-0.25998392525270525,0.028428263711718648,64.82535917384445,0
26.846686617003122,18.997536632194443,27.986402511423243,6.070906986087387,4.8762368000026095,5.891937647086887,5.782297861695137,1
5.421588598081065,-0.12749057100793235,-1.7549680443112634,-1.407087194784017,-0.22001802765967404,-0.12740687238995974,35.18873543173704,0
0.20529105707932885,-0.5955923124479203,1.266450620230187,-0.38762983266324635,-1.934964117240471,-0.1493614956496412,55.88194678447172,0
-1.9586004605652707,0.32672070983160095,2.6281499630492084,-0.9487486952680001,1.061256258512118,-0.4333895666861532,52.71353621802126,0
-1.6809859710133828,1.3744769007905768,-0.8715794592472719,-0.8414495141290085,-0.47783985070379115,-0.04460653218300141,49.86137647831163,0
0.046161317900841346,1.249807189308086,0.3868971499835922,1.3098651694335341,-0.07434532975852426,-0.18455144218594516,58.777475391555164,0
-0.780817476560942,1.0322880791727593,-1.3050565864332904,-0.6111771520193271,-0.5279940217656136,1.3530691601664073,55.219035214938344,0
0.06854362840044445,-3.3617409184762406,0.6194535582720044,0.475751991831532,0.5896392313574,-2.651828063044949,48.49994429799887,0
1.3731354935063522,1.482147561364572,-1.7533941712385859,0.6604599523515503,-0.3854932409123582,-2.0713771793381572,46.53964957138278,0
27.48943646329353,17.43093730793121,23.42611131830816,10.154220675137271,8.065365450249725,9.013102303542238,9.36565611658006,1
15.163180971964469,21.18335076847916,19.007900570997965,10.395437780044078,20.029980951435334,16.958789628480268,4.61033568097812,1
-0.5663037697597514,-4.050079827352346,0.31618779715357204,0.03344346797315094,-0.081894379572493,0.9911911129266663,62.87221635887324,0
0.9003112678932953,-0.20871689887617306,3.5509816984800966,-1.4791960183577666,0.13965167421589658,0.06502463118878012,42.230813702613304,0
-3.487345204793072,0.31364603219638637,0.5624609844372083,1.489599409447649,-1.2703620463250862,1.15469376671672,54.06369759138025,0
-2.581884438986448,-0.8139487327467423,0.028009934742761467,0.5637878750069146,-0.5913947298380474,1.555198534147342,47.756588201285815,0
18.803249701765584,21.3113149107981,12.804444158161303,16.750192220947174,10.980457137490472,12.907176185607215,7.691698695235875,1
0.8078311626314391,-0.23081867639957093,0.6367458790293324,0.2882515778693265,-0.5414316450742607,-0.7749165337272664,44.28132998417885,0
-0.37620575109010307,-0.7053697979911631,-1.241467493205113,-0.6947814747351655,0.29188002611631647,1.3776074471743054,30.288533064648398,0
-1.869773385426739,-0.4461396235814154,2.3806726812187375,1.0374611035089725,0.9679737442743352,0.9358688292198426,30.00264134661484,0
0.8734651111296702,0.8024143269659909,0.48950065336954757,-0.4168852800525142,0.08369939861550929,0.21559968370586682,58.52807023123032,0
4.210322761944836,-2.4196243941158238,1.5089513995413995,-0.0412437066390535,0.0021462821265419876,-0.8125757823108081,64.34762206927192,0
1.6672747936073835,0.33849080963792927,-0.6497896292804499,-0.06656154854445688,0.43346565005563986,-2.0055761729197408,75.53974652549743,0
1.7458657351509155,4.852385629366133,0.960670093906953,-0.280926624207774,-0.16123525467926955,0.7075423509341688,74.51512785567601,0
-0.34828143426048797,3.4283669332486744,3.373192272044376,-0.3301696679409411,-0.0810238367387997,-0.022368861878339998,35.026517934591794,0
-2.1745213685487044,2.4995151430959117,2.179574028408334,1.0725207141772715,-0.06937836694032916,1.8920117699896957,75.7443075060752,0
-2.7772440290699683,-0.45947066299570094,-0.31164211114763357,-0.06548753802161475,-1.325498967995686,0.7038809278242575,45.20776272427325,0
-2.2946830326426584,-1.537883249787845,0.9909973382803617,-0.5966033549083545,-0.1340652496363761,-1.0734607447026951,55.34650580385972,0
2.2994306584532604,0.9863396684776734,-0.08376010993013812,-0.09366232488927782,-0.7252436766377852,-0.4504631508837254,44.45891269282215,0
17.245316915780037,14.134045157566858,18.43857504658882,10.701544498159787,12.809105710206314,15.881729212050152,8.202929606091773,1
-2.7512681775727237,-0.9472909153023821,5.886096670537243,0.7244910603817276,2.369287300811497,1.3954340821991853,77.43524591195904,0
22.257955229465985,13.451597803437622,15.743485678281676,5.9283540380913635,6.711337573242373,4.849578865387755,7.083240490779703,1
1.7254098439800338,-4.126023623001631,2.900174084351504,-1.2702318390275464,-0.8763937434747587,0.6803425779863251,74.2337492476675,0
-2.5565252585151503,-0.5736108186670781,-1.2341564184208742,-1.1101887981524234,0.5958974585203659,0.9430514466067954,68.28921463578621,0
-1.5714004417566854,2.9969346482740824,1.1244781195165316,-1.2235671854750108,1.9815242670826692,-0.4444775331910273,57.075314106124395,0
0.7488824489036636,1.8024135609846157,1.691702368938007,-0.3421465631234604,0.531665595938595,0.4565998486985019,38.13261090949503,0
0.42312966638849586,3.93508149239172,-0.5900547042283147,1.2065874198042088,-0.6196364239164643,-0.8813146623227437,55.258200914665736,0
1.1350269225792267,1.1904555436684043,2.814599413069177,0.4078100146177539,0.8162218725571921,-1.0585682782565227,50.472396881365455,0
1.3434849643837454,-3.4302399093893916,1.260359184730227,-2.2418963547748287,-0.2759154704361769,-1.7055515908996055,57.45720076207256,0
10.880030751519941,15.531362069708896,10.973590563725551,10.649532740532187,5.085018976991245,10.120585595128059,6.70974709485785,1
-0.9019880340586188,0.5878987758863244,-1.5450842236844717,-0.05796399966830253,-1.5138305012448536,0.6308756035961556,56.3812228419354,0
0.18233629333287835,1.5764082815943734,-3.5612513458149784,1.5027343263055881,0.7762285047241061,-0.483933444951233,51.6198180092545,0
14.91612319240146,11.260021078164156,14.97160000032101,9.871830517278052,5.276110065342458,5.393275563862626,4.485425493684594,1
-2.015988477736981,0.7197079295099919,0.6800692184114759,-0.2942806125613498,-0.6892040470850336,-1.4021959857560435,73.56359254750586,0
2.57776000410369,-2.2211747173800864,2.7310459608123763,-0.05661208726445672,0.026571963404306374,0.8935920406314611,48.0071057069469,0
1.409723096391523,0.6971414885901459,-0.7205536937539518,0.6225313439371939,0.8269434604651958,-1.5120063120615763,70.21601630485863,0
0.045025948795455,-4.555125213698169,-0.24738637902356567,-0.3727422440286893,0.4919090174272401,-1.0730552296239266,53.213618466217,0
1.1150076420676744,-0.1767998335881473,0.17448287564121942,-1.493430736034726,0.398062174853005,1.6527497035142258,76.45104428584006,0
22.619325079820875,25.39763601759259,17.329373104774216,4.541405304522478,10.953860561295178,17.139529596129407,3.954890761835702,1
23.07968611781778,15.983101270156586,10.574069186500338,1.8021020573212763,15.043398079997239,12.466655905884473,0.33789150948248636,1
17.83504848586375,15.413185054288835,24.951665917660854,15.263549068184469,17.715375856087025,10.186113863734835,5.868204450735637,1
0.6842120793008364,3.834518296852246,-3.0511434161221676,-1.1541633847795414,0.8552015077482625,0.26429021015325105,54.808796305055765,0
19.815021424030384,9.394612395197653,16.207982122435556,5.100000445359798,14.70613301515106,7.665111465749595,5.10212916478122,1
16.712956964075193,17.728317601256478,14.945661108964325,12.02349272881167,10.49882761212186,8.51974686197928,7.739361288236722,1
19.981834782336755,18.848738839853308,13.767510985655463,12.431790268023015,6.978004467464203,9.592053381625288,3.8965742228811537,1
11.782074610963992,22.792659806493077,17.77997227529087,8.637951821155292,9.942722229136908,8.329967705939874,5.010473777944182,1
13.988640830327398,15.476831288553827,13.984445830233428,7.072570766336456,20.88764859162597,13.377823488286662,9.449474208215046,1
1.0649286155773907,-2.288292954055046,0.49337754067211276,1.299176580869636,-0.8605072511002159,-0.8878557074772063,31.962652653549995,0
1.4239149334345302,-1.9381021030751662,-0.4665679663145386,1.475732678992345,-0.873668891922626,1.5444420988742655,37.995662251206376,0
1.207408310245255,0.2154962692521348,0.02636052177337884,-0.7687182605183653,0.10045295045211468,-2.06763055408835,31.198772368826585,0
0.4375294735695417,2.594498400372107,-3.5308573950514135,-0.40677521629388924,-0.8746398141480543,-1.5110540339128657,71.77853549822802,0
-4.10574884069847,-2.361671833984271,-0.48475323077281474,1.1491370484685344,-1.5227145097905055,0.29439275913620677,67.17512678895376,0
7.74600072002926,14.588444638964347,11.345953690690003,10.936976168157084,8.313565658755522,12.50388189995487,2.2642960508764998,1
-0.4290753290359272,-7.202170208919036,-1.4025791415831,-0.8758148246462933,0.5327832093226242,-0.8055266825105205,68.5044515627041,0
1.988703039630847,1.8045427998869052,-0.9997448608217036,0.5430322792896524,-0.23389780045359396,-0.19609321067693788,36.91892812709592,0
20.22447947504942,22.253596972303235,22.459315110803743,5.546820663541475,7.371859051930704,13.978232942966486,0.3603737749918745,1
21.76692229992346,18.668945314325526,20.88596658593864,5.083928253787257,12.197718029743054,7.359887404357028,3.3880116992711296,1
-0.5990300750949551,-2.471406044098818,-0.344082718530945,1.438169201145702,0.1652400500649252,0.012521864329786338,49.9554649778713,0
15.979214202603487,18.008974364390536,18.58853709230479,3.312954906687332,20.841326577339572,12.079484072407645,9.257516930553054,1
-2.1107724426834675,3.598128468047306,-0.6931691632376383,-0.28164738225493074,0.6417092451913268,1.8840011375698578,69.4836806896378,0
-2.003243730980796,0.17391940407433887,-1.0645234523431515,0.7041298480492758,0.796965795509925,1.6332295165199409,53.01930878375203,0
2.6004978885040835,-2.8030596938650367,1.6113020657873434,1.1340005008147496,-0.0283398453664603,-1.4214646871565255,69.58200360915315,0
3.078034750510832,0.41576075355538133,-1.9544753774295216,1.738397194049411,0.8209228791097093,-0.9115099686768718,70.55076874660347,0
-1.2735902030991142,0.6962136294294216,2.2123736762477626,-0.2962491987642396,1.2082690915880543,-1.7553545693201642,55.1886721862317,0
2.1460419896072445,0.4372229730694111,-1.6470452337139543,-0.036376623659504295,-1.9094710179012568,0.6883869307128097,37.74708926689679,0
1.5053991421512747,0.07504652318638606,1.2136597445651491,0.9623165788801443,-0.5492281394953985,-0.8354102823918249,55.84183838672496,0
0.9041945769013755,-2.647230796978079,2.840759696056701,-0.822335471352724,-2.103500091725501,1.4948228998923268,58.28757821122912,0
1.4422390417517053,0.6391082024397541,-1.0455498964331273,0.5027972945255772,1.0484848737045507,-0.9858104964754729,34.213527959038274,0
12.920201684027163,16.16322095615876,22.095274692103498,10.458322468403377,14.343931577781301,8.633413217406416,0.0024087451786647396,1
17.68553066550071,15.760611775340209,21.290715180012818,8.418865807935276,16.371856384109524,15.860842013925524,5.319106968813024,1
-0.23519690531626317,-1.7459665227010537,-0.4393920484328989,-0.31997652935102444,-0.06829514729013945,-0.9824881228992798,63.8563744286951,0
-2.527761658148222,1.9360501517411681,-1.6229630739690097,-1.182815502304289,0.08732870392164904,-1.7578434493993103,52.00742236120662,0
-2.0587253799772753,3.1502746421758228,-1.3733184183466367,-0.5115852052062981,1.2736650541304377,-0.7928636050723185,67.83524550557348,0
0.9570606282998068,-2.8897946459285193,-1.2079717184317527,2.713619777528997,-0.4905236525315732,2.986329375576428,58.27281830370541,0
0.5944685449950325,-0.9296467102542028,-0.1778251818069243,-0.6887241565242733,-0.06362640381960291,-1.362194891382653,71.50886214997936,0
16.9620782742848,24.60658101401702,16.34002770559962,1.9618397793141327,9.247854856453326,10.6386422621917,8.576559882418273,1
-2.6802497913095715,-0.971357489150094,-2.975723406981246,-1.1251861017311617,0.3888189102637133,-1.1738733263060288,53.831208025431444,0
0.17118940788905088,-0.5567459352157881,1.5456956770874464,0.7831598877770107,0.3350543519121714,0.5647891059076481,76.39050308238481,0
-0.6757555509476135,0.004463244324804001,-0.5492874987325949,-0.4572185393191959,-0.6891117977217902,0.4676901038588855,75.61148109998,0
19.568615914484536,10.576976040401735,21.041335831720946,15.38374003135326,9.301408217273488,15.440672523312053,9.037672613991067,1
1.3805118582456064,-4.99141476756493,-5.398644698864599,-1.178669236297522,0.14903970062499755,1.5321637696085468,45.8358561012608,0
0.17721278144949715,-0.9846375899580702,-1.0983815385936473,-0.4214748374312925,1.3147884915190176,1.1161342887381218,67.6077446128833,0
1.0180567081359506,2.3077882690769815,-1.7210931450972575,-0.653677053748058,-0.6643822914959687,-0.08672224914150004,78.92472323358953,0
3.9462097361638095,1.4425562584980964,-1.0295833989993135,-0.0032743790558235593,1.504942189115205,0.7818798426041219,50.83745303120266,0
-1.4233230771526115,-1.3940894027188449,-0.8039729822722702,-1.0632830097704935,0.29519306170841997,0.31238724341164475,49.14121039817519,0
-1.8882551129248406,1.6111609490614536,0.36694623742313437,0.044802456387939664,1.2638538399101207,-1.0099542026761599,41.13018182706189,0
14.007302427206195,19.107837638041197,20.295900836674317,8.821689438000018,8.550129440962298,10.74196400127396,8.211261044851797,1
19.634972566350488,13.824377480138825,26.26456525615211,18.31111034079378,9.867898945121757,7.985398958497615,9.246228178425286,1
3.2881935557049213,-2.6955739504250182,1.356039830933985,0.6682132544361378,1.1520386983137296,0.06205134882299451,49.56890466818734,0
-1.6027825405251783,-1.8944060223190091,-2.8828043747508465,-0.4413587915148518,0.31148837705706356,-0.20813209608425529,71.69583002305185,0
-1.0349730966513913,4.680592996090613,1.5104859979811447,-0.1969257225752349,-0.2196020942255738,-1.0081299567768498,47.228095399393766,0
2.5115323505371174,-5.6332216000345365,0.08350194673569708,-1.1439890013233718,-0.701178651923643,-0.5721519329225444,33.24171093930956,0
3.8512522549238883,-2.2065014109406795,1.8285190895882457,1.1604018292673417,-2.3384282002430976,-0.615352766761434,48.79799548203319,0
16.697902334237305,19.852992069901056,18.88442919715004,11.396902250177867,7.125251823404467,12.529196839133203,2.341944256168129,1
